Accelerometer x;Accelerometer y;Accelerometer z;Gyroscope x;Gyroscope y;Gyroscope z;;
0.0450439453125;-0.65966796875;0.627197265625;-3.7022900763358777;-1.015267175572519;0.46564885496183206;;
0.0367431640625;-0.6673583984375;0.6171875;-3.4656488549618323;-1.0763358778625953;0.22900763358778625;;
0.03955078125;-0.66845703125;0.62353515625;-3.786259541984733;-1.083969465648855;0.33587786259541985;;
0.04541015625;-0.6712646484375;0.6165771484375;-3.2595419847328246;-1.1450381679389312;0.35877862595419846;;
0.0396728515625;-0.6734619140625;0.6175537109375;-3.6106870229007635;-1.1603053435114503;0.5419847328244275;;
0.0374755859375;-0.6712646484375;0.6378173828125;-3.717557251908397;-1.0305343511450382;0.3053435114503817;;
0.04345703125;-0.66748046875;0.62060546875;-3.786259541984733;-1.0916030534351144;0.37404580152671757;;
0.0430908203125;-0.6710205078125;0.6217041015625;-3.404580152671756;-1.1297709923664123;0.35877862595419846;;
0.040283203125;-0.6693115234375;0.6279296875;-3.564885496183206;-1.2213740458015268;0.42748091603053434;;
0.044677734375;-0.670166015625;0.621337890625;-3.8625954198473282;-1.1603053435114503;0.3816793893129771;;
0.0426025390625;-0.66845703125;0.6243896484375;-3.2213740458015265;-1.2290076335877862;0.3282442748091603;;
0.0447998046875;-0.665771484375;0.625732421875;-4.015267175572519;-1.1450381679389312;0.3816793893129771;;
0.040771484375;-0.6680908203125;0.6251220703125;-3.4885496183206106;-1.1068702290076335;0.42748091603053434;;
0.04541015625;-0.666748046875;0.618408203125;-3.282442748091603;-1.213740458015267;0.3282442748091603;;
0.0404052734375;-0.6693115234375;0.6202392578125;-3.6717557251908395;-1.1450381679389312;0.5954198473282443;;
0.039794921875;-0.6707763671875;0.6260986328125;-3.404580152671756;-1.1297709923664123;0.2366412213740458;;
0.043701171875;-0.669189453125;0.6192626953125;-3.7251908396946565;-1.099236641221374;0.3969465648854962;;
0.0426025390625;-0.66845703125;0.6224365234375;-3.4732824427480917;-1.1526717557251909;0.2900763358778626;;
0.0418701171875;-0.6658935546875;0.63330078125;-3.6946564885496183;-1.0916030534351144;0.3893129770992366;;
0.0440673828125;-0.6666259765625;0.6221923828125;-3.8091603053435112;-1.1145038167938932;0.35877862595419846;;
0.037353515625;-0.663818359375;0.609375;-3.5114503816793894;-1.0305343511450382;0.29770992366412213;;
0.044921875;-0.6717529296875;0.624755859375;-3.732824427480916;-1.213740458015267;0.5725190839694656;;
0.04052734375;-0.66552734375;0.6212158203125;-3.4427480916030535;-1.1221374045801527;0.48091603053435117;;
0.0450439453125;-0.6685791015625;0.632080078125;-3.5419847328244276;-1.1984732824427482;0.3816793893129771;;
0.0614013671875;-0.668701171875;0.6298828125;-3.66412213740458;-1.083969465648855;0.3969465648854962;;
0.0408935546875;-0.669921875;0.6114501953125;-3.6030534351145036;-1.0534351145038168;0.2824427480916031;;
0.0462646484375;-0.671875;0.621337890625;-3.404580152671756;-1.1755725190839694;0.35877862595419846;;
0.03955078125;-0.6651611328125;0.631103515625;-3.7557251908396947;-1.1068702290076335;0.31297709923664124;;
0.0433349609375;-0.671875;0.61669921875;-3.4427480916030535;-1.2900763358778626;0.26717557251908397;;
0.0396728515625;-0.6697998046875;0.6241455078125;-3.687022900763359;-1.16793893129771;0.5419847328244275;;
0.0379638671875;-0.6707763671875;0.621826171875;-3.435114503816794;-1.1374045801526718;0.3435114503816794;;
0.0391845703125;-0.6663818359375;0.624267578125;-3.7251908396946565;-1.1297709923664123;0.3969465648854962;;
0.0450439453125;-0.6826171875;0.6201171875;-3.312977099236641;-1.1297709923664123;0.19083969465648856;;
0.04296875;-0.668212890625;0.630126953125;-3.5801526717557253;-1.1755725190839694;0.3969465648854962;;
0.0433349609375;-0.66455078125;0.6263427734375;-3.4732824427480917;-1.2595419847328244;0.2824427480916031;;
0.04296875;-0.6649169921875;0.627197265625;-3.9083969465648853;-1.1068702290076335;0.3893129770992366;;
0.0418701171875;-0.6680908203125;0.623779296875;-3.786259541984733;-1.1145038167938932;0.19083969465648856;;
0.044677734375;-0.66650390625;0.6212158203125;-3.4656488549618323;-1.0381679389312977;0.22137404580152673;;
0.038330078125;-0.6678466796875;0.621337890625;-3.7557251908396947;-1.2061068702290076;0.35877862595419846;;
0.04345703125;-0.6568603515625;0.627685546875;-3.6412213740458017;-1.1221374045801527;0.2595419847328244;;
0.041259765625;-0.6688232421875;0.622802734375;-3.236641221374046;-1.2061068702290076;0.31297709923664124;;
0.04248046875;-0.6710205078125;0.62548828125;-3.66412213740458;-1.2442748091603053;0.37404580152671757;;
0.04052734375;-0.6715087890625;0.62451171875;-3.648854961832061;-1.16793893129771;0.19083969465648856;;
0.0465087890625;-0.671875;0.6236572265625;-3.6259541984732824;-1.1603053435114503;0.29770992366412213;;
0.0399169921875;-0.6707763671875;0.6201171875;-3.6106870229007635;-1.083969465648855;0.31297709923664124;;
-0.0037841796875;-0.79150390625;0.8353271484375;69.86259541984732;-21.076335877862597;-14.992366412213741;;
0.03369140625;-0.64990234375;0.6617431640625;9.977099236641221;10.770992366412214;-9.793893129770993;;
0.024658203125;-0.6611328125;0.6339111328125;3.015267175572519;2.213740458015267;-3.50381679389313;;
0.0201416015625;-0.6544189453125;0.6243896484375;26.80916030534351;17.885496183206108;-24.328244274809162;;
0.037841796875;-0.635986328125;0.668701171875;25.740458015267176;14.34351145038168;-19.03053435114504;;
0.0499267578125;-0.6302490234375;0.69384765625;4.305343511450381;-4.923664122137405;5.374045801526718;;
0.0191650390625;-0.6361083984375;0.6646728515625;-4.091603053435114;-4.99236641221374;5.564885496183206;;
0.0155029296875;-0.6373291015625;0.631591796875;7.297709923664122;14.351145038167939;-18.641221374045802;;
0.043701171875;-0.6378173828125;0.6549072265625;11.755725190839694;14.320610687022901;-18.16030534351145;;
0.0455322265625;-0.6290283203125;0.6734619140625;4.374045801526718;4.320610687022901;-6.3816793893129775;;
0.0413818359375;-0.6240234375;0.6529541015625;1.0610687022900764;2.1526717557251906;-3.618320610687023;;
0.031982421875;-0.6217041015625;0.65283203125;13.564885496183207;9.183206106870228;-10.083969465648854;;
0.136474609375;-0.5933837890625;0.6708984375;8.01526717557252;-5.580152671755725;6.00763358778626;;
0.02783203125;-0.62841796875;0.670166015625;-1.9389312977099236;-1.3053435114503817;2.7404580152671754;;
0.0408935546875;-0.6177978515625;0.66796875;-2.9389312977099236;0.05343511450381679;-0.4198473282442748;;
0.0460205078125;-0.626953125;0.6585693359375;-7.282442748091603;-5.297709923664122;5.374045801526718;;
0.054931640625;-0.61767578125;0.661376953125;-2.1526717557251906;5.358778625954199;-7.435114503816794;;
-0.0516357421875;-0.54296875;0.7098388671875;12.67175572519084;-7.656488549618321;13.526717557251908;;
0.084228515625;-0.6142578125;0.666015625;29.64885496183206;-1.5877862595419847;8.17557251908397;;
0.0452880859375;-0.6507568359375;0.6588134765625;15.931297709923664;-4.809160305343512;1.2671755725190839;;
0.0487060546875;-0.839111328125;0.5869140625;5.824427480916031;-4.679389312977099;2.3435114503816794;;
0.0313720703125;-0.5943603515625;0.690673828125;-0.22900763358778625;-4.557251908396947;4.519083969465649;;
0.050537109375;-0.6005859375;0.68017578125;-3.969465648854962;-3.7557251908396947;3.984732824427481;;
0.047119140625;-0.5933837890625;0.6739501953125;-1.0687022900763359;-8.076335877862595;9.702290076335878;;
0.0404052734375;-0.5960693359375;0.665283203125;9.84732824427481;-0.5801526717557252;-0.6259541984732825;;
0.0137939453125;-0.5233154296875;0.71728515625;38.916030534351144;6.0534351145038165;-2.3053435114503817;;
0.06298828125;-0.635009765625;0.692626953125;19.96946564885496;-3.4198473282442747;2.4656488549618323;;
0.042236328125;-0.575927734375;0.7088623046875;1.0305343511450382;-6.6106870229007635;8.236641221374045;;
0.0362548828125;-0.576904296875;0.69775390625;-0.21374045801526717;-5.114503816793893;5.587786259541985;;
0.042236328125;-0.5748291015625;0.703125;4.687022900763359;-4.66412213740458;5.427480916030534;;
0.0357666015625;-0.6043701171875;0.702880859375;-2.3206106870229006;-5.923664122137405;6.816793893129771;;
0.075439453125;-0.6053466796875;0.708251953125;-22.27480916030534;-13.221374045801527;7.893129770992366;;
0.073974609375;-0.60009765625;0.6661376953125;-27.419847328244273;-6.442748091603053;9.633587786259541;;
0.018310546875;-0.5093994140625;0.712890625;-14.961832061068701;-2.9236641221374047;5.580152671755725;;
0.0330810546875;-0.584228515625;0.6904296875;4.1679389312977095;1.0687022900763359;-2.763358778625954;;
0.039306640625;-0.581298828125;0.7110595703125;-1.9618320610687023;1.6488549618320612;-3.3969465648854964;;
0.0384521484375;-0.5887451171875;0.69140625;-6.343511450381679;2.1603053435114505;-4.030534351145038;;
0.042724609375;-0.578369140625;0.7021484375;-3.114503816793893;1.0076335877862594;-2.900763358778626;;
0.0506591796875;-0.5859375;0.697265625;-6.213740458015267;0.8549618320610687;-2.3587786259541983;;
0.0479736328125;-0.5882568359375;0.697509765625;-9.01526717557252;-1.1068702290076335;0.5877862595419847;;
0.056396484375;-0.633056640625;0.677978515625;-22.50381679389313;-9.198473282442748;7.2748091603053435;;
0.038818359375;-0.6248779296875;0.670654296875;-33.48854961832061;-8.01526717557252;7.870229007633588;;
0.05224609375;-0.57373046875;0.697998046875;-35.267175572519086;-1.4045801526717556;5.030534351145038;;
0.028076171875;-0.5794677734375;0.6915283203125;-24.755725190839694;-0.8549618320610687;-0.19083969465648856;;
0.0523681640625;-0.630859375;0.6588134765625;-18.938931297709924;3.5419847328244276;-2.427480916030534;;
0.0484619140625;-0.619873046875;0.6751708984375;-24.549618320610687;3.4580152671755724;-1.1374045801526718;;
0.0458984375;-0.624267578125;0.6712646484375;-26.083969465648856;-4.312977099236641;4.6183206106870225;;
0.044921875;-0.62939453125;0.65234375;-22.374045801526716;-4.290076335877862;4.221374045801527;;
0.041259765625;-0.6243896484375;0.6656494140625;-24.33587786259542;-2.1908396946564888;1.381679389312977;;
0.0660400390625;-0.6279296875;0.666259765625;-41.587786259541986;-6.526717557251908;6.33587786259542;;
0.0443115234375;-0.655517578125;0.5889892578125;-32.083969465648856;-18.740458015267176;20.946564885496183;;
0.0341796875;-0.6441650390625;0.6424560546875;-7.427480916030534;13.007633587786259;-0.0916030534351145;;
0.0321044921875;-0.65380859375;0.6072998046875;-8.396946564885496;14.648854961832061;-15.854961832061068;;
0.0543212890625;-0.65869140625;0.6383056640625;-4.931297709923665;-4.473282442748092;4.969465648854962;;
0.0233154296875;-0.6539306640625;0.632080078125;-9.625954198473282;-3.2442748091603053;2.7251908396946565;;
0.0362548828125;-0.6551513671875;0.639892578125;-1.8625954198473282;0.3053435114503817;-1.2900763358778626;;
0.039306640625;-0.654541015625;0.6287841796875;-7.908396946564886;-1.0916030534351144;0.5114503816793893;;
0.0450439453125;-0.6585693359375;0.6392822265625;-3.2748091603053435;-1.16793893129771;0.2748091603053435;;
0.037353515625;-0.662841796875;0.628662109375;-6.290076335877862;-1.1908396946564885;0.366412213740458;;
0.04296875;-0.66259765625;0.6318359375;-3.068702290076336;-1.0534351145038168;0.19083969465648856;;
0.04150390625;-0.6563720703125;0.6328125;-5.465648854961832;-1.1908396946564885;0.3511450381679389;;
0.044921875;-0.6605224609375;0.620361328125;-4.1679389312977095;-1.1221374045801527;0.21374045801526717;;
0.0396728515625;-0.662841796875;0.63818359375;-4.557251908396947;-1.0687022900763359;0.26717557251908397;;
0.04052734375;-0.6593017578125;0.6290283203125;-3.83206106870229;-1.2290076335877862;0.1984732824427481;;
0.04052734375;-0.661376953125;0.6353759765625;-4.625954198473282;-1.183206106870229;0.3816793893129771;;
0.039794921875;-0.662109375;0.630615234375;-3.717557251908397;-1.2366412213740459;0.2595419847328244;;
0.044677734375;-0.65576171875;0.6302490234375;-4.580152671755725;-0.9923664122137404;0.37404580152671757;;
0.0404052734375;-0.6617431640625;0.6331787109375;-3.5877862595419847;-1.1908396946564885;0.29770992366412213;;
0.0406494140625;-0.6622314453125;0.63427734375;-4.526717557251908;-1.16793893129771;0.3435114503816794;;
0.03857421875;-0.6627197265625;0.6268310546875;-3.8625954198473282;-1.213740458015267;0.3435114503816794;;
0.0382080078125;-0.659423828125;0.63330078125;-4.190839694656488;-1.1908396946564885;0.3053435114503817;;
0.039306640625;-0.658935546875;0.6258544921875;-3.66412213740458;-1.0534351145038168;0.2748091603053435;;
0.0389404296875;-0.6619873046875;0.630859375;-4.030534351145038;-1.16793893129771;0.33587786259541985;;
0.04443359375;-0.6578369140625;0.6278076171875;-3.9236641221374047;-1.1603053435114503;0.22137404580152673;;
0.040283203125;-0.6641845703125;0.6357421875;-3.763358778625954;-1.0687022900763359;0.2366412213740458;;
0.04443359375;-0.6644287109375;0.6302490234375;-3.648854961832061;-1.1450381679389312;0.366412213740458;;
0.0413818359375;-0.6612548828125;0.6295166015625;-3.969465648854962;-1.16793893129771;0.35877862595419846;;
0.0418701171875;-0.661865234375;0.6265869140625;-3.854961832061069;-1.1145038167938932;0.22900763358778625;;
0.0394287109375;-0.6583251953125;0.6339111328125;-3.8396946564885495;-1.2061068702290076;0.26717557251908397;;
0.036865234375;-0.666748046875;0.6370849609375;-3.786259541984733;-1.1755725190839694;0.3053435114503817;;
0.0396728515625;-0.6650390625;0.6318359375;-4.00763358778626;-0.9923664122137404;0.37404580152671757;;
0.0384521484375;-0.6630859375;0.633544921875;-3.801526717557252;-1.0305343511450382;0.3969465648854962;;
0.0396728515625;-0.66064453125;0.625732421875;-3.6946564885496183;-1.0458015267175573;0.5419847328244275;;
0.04443359375;-0.6654052734375;0.630615234375;-3.6412213740458017;-1.083969465648855;0.3435114503816794;;
0.0399169921875;-0.65966796875;0.6358642578125;-3.763358778625954;-1.1297709923664123;0.31297709923664124;;
0.041748046875;-0.6641845703125;0.6312255859375;-3.7099236641221376;-1.1374045801526718;0.33587786259541985;;
0.0380859375;-0.6605224609375;0.634033203125;-3.6564885496183206;-1.1450381679389312;0.35877862595419846;;
0.0423583984375;-0.6612548828125;0.62744140625;-3.9083969465648853;-1.3053435114503817;0.3053435114503817;;
0.0400390625;-0.6619873046875;0.6259765625;-3.549618320610687;-1.213740458015267;0.3282442748091603;;
0.045166015625;-0.6639404296875;0.6328125;-3.7709923664122136;-1.1374045801526718;0.31297709923664124;;
0.0406494140625;-0.659912109375;0.632080078125;-3.6564885496183206;-1.1908396946564885;0.2595419847328244;;
0.042724609375;-0.6614990234375;0.629150390625;-3.6564885496183206;-1.2213740458015268;0.366412213740458;;
0.0435791015625;-0.6634521484375;0.6368408203125;-3.7022900763358777;-1.1145038167938932;0.29770992366412213;;
0.0411376953125;-0.66796875;0.630615234375;-3.717557251908397;-1.1068702290076335;0.37404580152671757;;
0.0421142578125;-0.6614990234375;0.626220703125;-3.480916030534351;-1.1755725190839694;0.3053435114503817;;
0.0423583984375;-0.662841796875;0.62890625;-3.900763358778626;-1.1603053435114503;0.35877862595419846;;
0.0396728515625;-0.658203125;0.63134765625;-3.7557251908396947;-1.1221374045801527;0.40458015267175573;;
0.062255859375;-0.666748046875;0.63330078125;-3.648854961832061;-1.1526717557251909;0.22900763358778625;;
0.03662109375;-0.659423828125;0.6279296875;-3.7709923664122136;-1.099236641221374;0.3053435114503817;;
0.0433349609375;-0.6605224609375;0.628662109375;-3.6717557251908395;-1.1755725190839694;0.20610687022900764;;
0.0391845703125;-0.668212890625;0.628662109375;-3.786259541984733;-0.916030534351145;0.2748091603053435;;
0.038818359375;-0.6640625;0.631591796875;-3.6412213740458017;-1.2290076335877862;0.32061068702290074;;
0.04345703125;-0.662841796875;0.6260986328125;-3.8473282442748094;-1.1374045801526718;0.2748091603053435;;
0.041259765625;-0.667236328125;0.6263427734375;-3.435114503816794;-1.0534351145038168;0.44274809160305345;;
0.0401611328125;-0.6644287109375;0.629150390625;-3.519083969465649;-1.0610687022900764;0.25190839694656486;;
0.045654296875;-0.6640625;0.6273193359375;-3.7938931297709924;-1.0534351145038168;0.366412213740458;;
0.0406494140625;-0.660400390625;0.6351318359375;-3.564885496183206;-1.0305343511450382;0.2824427480916031;;
0.042236328125;-0.662353515625;0.6307373046875;-3.66412213740458;-1.0534351145038168;0.29770992366412213;;
0.035400390625;-0.66357421875;0.6309814453125;-3.8244274809160306;-1.2213740458015268;0.35877862595419846;;
0.0380859375;-0.6639404296875;0.63134765625;-3.66412213740458;-1.1526717557251909;0.1984732824427481;;
0.0462646484375;-0.6627197265625;0.63330078125;-3.7022900763358777;-1.1145038167938932;0.4198473282442748;;
0.0430908203125;-0.65966796875;0.63232421875;-3.6946564885496183;-1.0610687022900764;0.33587786259541985;;
0.0447998046875;-0.6624755859375;0.6275634765625;-3.5572519083969465;-0.9312977099236641;0.3282442748091603;;
0.0400390625;-0.6622314453125;0.6270751953125;-3.618320610687023;-1.0458015267175573;0.3282442748091603;;
0.038330078125;-0.6622314453125;0.6282958984375;-3.5343511450381677;-1.1450381679389312;0.29770992366412213;;
0.0401611328125;-0.6575927734375;0.624267578125;-3.7099236641221376;-1.1145038167938932;0.3511450381679389;;
0.043701171875;-0.6630859375;0.6353759765625;-3.6412213740458017;-1.1603053435114503;0.21374045801526717;;
0.0330810546875;-0.6617431640625;0.6334228515625;-3.3969465648854964;-1.16793893129771;0.31297709923664124;;
0.04052734375;-0.6632080078125;0.6268310546875;-3.6412213740458017;-1.0381679389312977;0.366412213740458;;
0.037841796875;-0.6654052734375;0.6328125;-3.564885496183206;-1.183206106870229;0.2366412213740458;;
0.0416259765625;-0.66064453125;0.6290283203125;-3.6717557251908395;-1.1450381679389312;0.33587786259541985;;
0.03857421875;-0.6617431640625;0.6273193359375;-3.427480916030534;-1.16793893129771;0.35877862595419846;;
0.04052734375;-0.6624755859375;0.636962890625;-3.6564885496183206;-1.1068702290076335;0.31297709923664124;;
0.042236328125;-0.662109375;0.6263427734375;-3.732824427480916;-1.1908396946564885;0.22137404580152673;;
0.04150390625;-0.6593017578125;0.6268310546875;-3.5114503816793894;-1.0381679389312977;0.2366412213740458;;
0.0465087890625;-0.66064453125;0.6329345703125;-3.5877862595419847;-1.099236641221374;0.4122137404580153;;
0.0369873046875;-0.65966796875;0.625732421875;-3.5572519083969465;-1.0916030534351144;0.3969465648854962;;
0.0396728515625;-0.6634521484375;0.6298828125;-3.633587786259542;-1.2442748091603053;0.2824427480916031;;
0.044677734375;-0.6595458984375;0.6295166015625;-3.5572519083969465;-1.2366412213740459;0.3816793893129771;;
0.038818359375;-0.6650390625;0.6236572265625;-3.717557251908397;-1.083969465648855;0.24427480916030533;;
0.0380859375;-0.6640625;0.61865234375;-3.633587786259542;-1.1374045801526718;0.25190839694656486;;
0.0377197265625;-0.6610107421875;0.629638671875;-3.6106870229007635;-1.2061068702290076;0.24427480916030533;;
0.04443359375;-0.6658935546875;0.6275634765625;-3.6412213740458017;-1.1221374045801527;0.3435114503816794;;
0.0460205078125;-0.6668701171875;0.631591796875;-3.549618320610687;-1.183206106870229;0.31297709923664124;;
0.0462646484375;-0.66162109375;0.6292724609375;-3.7557251908396947;-0.9847328244274809;0.33587786259541985;;
0.0421142578125;-0.6656494140625;0.6256103515625;-3.381679389312977;-1.0305343511450382;0.3053435114503817;;
0.0435791015625;-0.6585693359375;0.62060546875;-3.480916030534351;-0.9923664122137404;0.3893129770992366;;
0.0386962890625;-0.6600341796875;0.6314697265625;-3.4885496183206106;-1.1145038167938932;0.33587786259541985;;
0.0433349609375;-0.663330078125;0.62890625;-3.5114503816793894;-1.2213740458015268;0.42748091603053434;;
0.03857421875;-0.6673583984375;0.6298828125;-3.4198473282442747;-1.1526717557251909;0.3282442748091603;;
0.0426025390625;-0.6610107421875;0.62255859375;-3.854961832061069;-1.0610687022900764;0.2900763358778626;;
0.0400390625;-0.666748046875;0.6319580078125;-3.1755725190839694;-1.1603053435114503;0.3511450381679389;;
0.0406494140625;-0.6634521484375;0.62939453125;-3.954198473282443;-1.2290076335877862;0.4961832061068702;;
0.03955078125;-0.664306640625;0.62060546875;-3.3053435114503817;-1.1755725190839694;0.2748091603053435;;
0.0379638671875;-0.6656494140625;0.627197265625;-3.648854961832061;-1.1908396946564885;0.3816793893129771;;
0.021484375;-0.6688232421875;0.6395263671875;1.3206106870229009;3.2977099236641223;-5.251908396946565;;
0.0340576171875;-0.6663818359375;0.6170654296875;-1.618320610687023;-1.1374045801526718;0.4122137404580153;;
0.0389404296875;-0.6611328125;0.6373291015625;-4.534351145038168;-2.49618320610687;1.6793893129770991;;
0.0413818359375;-0.6636962890625;0.6204833984375;-4.694656488549619;-1.083969465648855;-0.08396946564885496;;
0.03857421875;-0.661376953125;0.635009765625;-0.9694656488549618;-0.5114503816793893;-0.46564885496183206;;
0.04541015625;-0.66357421875;0.633544921875;-7.3893129770992365;-1.2290076335877862;0.7786259541984732;;
0.034423828125;-0.662841796875;0.61767578125;-4.67175572519084;-4.450381679389313;3.183206106870229;;
0.028564453125;-0.6602783203125;0.6280517578125;-3.8396946564885495;-1.5419847328244274;0.3282442748091603;;
0.0418701171875;-0.6629638671875;0.6319580078125;-3.8091603053435112;-1.0534351145038168;-0.007633587786259542;;
0.04052734375;-0.662841796875;0.6314697265625;-3.0763358778625953;-1.0687022900763359;0.48091603053435117;;
0.03662109375;-0.6641845703125;0.626220703125;-3.8931297709923665;-1.1603053435114503;0.1297709923664122;;
0.04150390625;-0.666748046875;0.63232421875;-3.66412213740458;-1.213740458015267;0.31297709923664124;;
0.0458984375;-0.6654052734375;0.62646484375;-3.351145038167939;-1.099236641221374;0.29770992366412213;;
0.0474853515625;-0.6650390625;0.62451171875;-3.5267175572519083;-1.2213740458015268;0.26717557251908397;;
0.0394287109375;-0.6575927734375;0.6280517578125;-3.763358778625954;-1.16793893129771;0.1984732824427481;;
0.04541015625;-0.6614990234375;0.631591796875;-3.3053435114503817;-1.0229007633587786;0.33587786259541985;;
0.0419921875;-0.6605224609375;0.6263427734375;-3.8702290076335877;-1.1450381679389312;0.20610687022900764;;
0.0389404296875;-0.6591796875;0.63037109375;-3.572519083969466;-1.0381679389312977;0.40458015267175573;;
0.0377197265625;-0.66259765625;0.6290283203125;-3.66412213740458;-1.0458015267175573;0.25190839694656486;;
0.206787109375;-0.70361328125;0.2408447265625;7.877862595419847;-78.38931297709924;54.732824427480914;;
-0.03955078125;-0.7750244140625;0.9544677734375;-30.419847328244273;-6.290076335877862;4.778625954198473;;
-0.0262451171875;-0.4842529296875;0.73583984375;-80.2824427480916;174.61832061068702;-93.05343511450381;;
-0.181884765625;-0.514404296875;0.45068359375;30.16030534351145;-80.58778625954199;-24.870229007633586;;
-0.0283203125;-0.6553955078125;0.595703125;18.82442748091603;-9.305343511450381;-4.7251908396946565;;
0.032470703125;-0.7669677734375;0.53662109375;-3.7709923664122136;3.0916030534351147;1.5114503816793894;;
0.005126953125;-0.637939453125;0.853271484375;-3.8473282442748094;25.49618320610687;-32.267175572519086;;
-0.0428466796875;-0.8995361328125;0.174072265625;48.091603053435115;-130.74045801526717;148.05343511450383;;
-0.3857421875;-0.7569580078125;0.746826171875;70.16030534351145;-27.763358778625953;76.90839694656489;;
0.3582763671875;-0.796875;0.67236328125;11.511450381679388;95.00763358778626;55.85496183206107;;
0.2442626953125;-0.7913818359375;0.5159912109375;-49.11450381679389;227.12213740458014;78.13740458015268;;
0.0726318359375;-0.6722412109375;0.708740234375;-46.85496183206107;236.29770992366412;-4.4961832061068705;;
-0.1170654296875;-0.6365966796875;0.5439453125;-46.67175572519084;250.12977099236642;-26.31297709923664;;
-0.319580078125;-0.614013671875;0.6995849609375;-28.450381679389313;250.12977099236642;-12.335877862595419;;
-0.52490234375;-0.658203125;0.6331787109375;-57.916030534351144;250.12977099236642;-88.90839694656489;;
-0.4176025390625;-0.697509765625;0.4888916015625;-19.091603053435115;213.3740458015267;39.030534351145036;;
-0.4425048828125;-0.8056640625;0.5672607421875;-41.396946564885496;250.12977099236642;98.68702290076335;;
-0.438720703125;-0.6651611328125;0.4736328125;-22.702290076335878;250.12977099236642;86.22900763358778;;
-0.3038330078125;-0.713134765625;0.1048583984375;-55.10687022900763;250.12977099236642;85.29770992366412;;
-0.7012939453125;-0.5240478515625;0.2557373046875;-22.885496183206108;250.12977099236642;14.122137404580153;;
-0.751708984375;-0.5986328125;-0.0423583984375;-39.30534351145038;234.99236641221373;40.68702290076336;;
-0.80078125;-0.747802734375;-0.3145751953125;-107.07633587786259;178.72519083969465;31.717557251908396;;
-0.922607421875;-0.7403564453125;-0.0693359375;-151.51908396946564;174.0763358778626;83.2442748091603;;
-0.8558349609375;-0.67724609375;-0.1678466796875;-162.72519083969465;232.0916030534351;119.78625954198473;;
-0.930419921875;-0.7843017578125;0.0535888671875;-135.42748091603053;250.12977099236642;82.65648854961832;;
-0.65380859375;-0.5023193359375;-0.459716796875;-146.89312977099237;165.13740458015266;105.99236641221374;;
-0.746337890625;-0.503662109375;-0.3359375;-93.12977099236642;145.78625954198472;79.52671755725191;;
-0.757080078125;-0.5010986328125;-0.3585205078125;-27.763358778625953;100.98473282442748;28.34351145038168;;
-0.79833984375;-0.60205078125;-0.448486328125;-47.17557251908397;15.259541984732824;1.1068702290076335;;
-0.8592529296875;-0.5579833984375;-0.4189453125;-71.50381679389314;15.84732824427481;14.0;;
-0.7777099609375;-0.3868408203125;-0.40185546875;-65.04580152671755;-7.137404580152672;37.587786259541986;;
-0.7650146484375;-0.383056640625;-0.388916015625;-66.77099236641222;-11.34351145038168;60.0763358778626;;
-0.763671875;-0.403564453125;-0.473388671875;-44.083969465648856;95.00763358778626;56.343511450381676;;
-0.7803955078125;-0.3798828125;-0.5989990234375;-52.41984732824427;171.81679389312978;62.99236641221374;;
-0.808349609375;-0.3604736328125;-0.615234375;-31.404580152671755;128.87786259541986;40.770992366412216;;
-0.8072509765625;-0.4210205078125;-0.56689453125;-43.458015267175576;104.78625954198473;46.908396946564885;;
-0.6737060546875;-0.3978271484375;-0.502685546875;-29.870229007633586;211.8320610687023;25.732824427480917;;
-0.6602783203125;-0.34375;-0.70703125;-17.3206106870229;250.12977099236642;16.786259541984734;;
-0.7667236328125;-0.49365234375;-0.8629150390625;24.80916030534351;250.12977099236642;-43.23664122137404;;
-0.4951171875;-0.49169921875;-0.742431640625;-3.572519083969466;250.12977099236642;-2.877862595419847;;
-0.3560791015625;-0.31494140625;-0.907958984375;87.20610687022901;250.12977099236642;-62.0;;
-0.3282470703125;-0.416259765625;-1.1771240234375;61.213740458015266;250.12977099236642;-5.305343511450381;;
-0.154296875;-0.3836669921875;-0.9090576171875;6.480916030534351;201.7709923664122;-32.14503816793893;;
-0.2041015625;-0.4349365234375;-1.061279296875;33.404580152671755;165.1145038167939;-27.450381679389313;;
-0.1324462890625;-0.4427490234375;-1.11962890625;16.244274809160306;119.0;-23.34351145038168;;
-0.1051025390625;-0.4881591796875;-1.134765625;-6.648854961832061;93.06870229007633;-13.51908396946565;;
-0.092041015625;-0.4659423828125;-1.0809326171875;-28.16793893129771;72.58778625954199;-15.412213740458014;;
0.00732421875;-0.4832763671875;-1.0474853515625;-43.10687022900763;145.0916030534351;-16.251908396946565;;
-0.018310546875;-0.4132080078125;-0.9591064453125;-14.526717557251908;60.64885496183206;-14.19083969465649;;
0.055419921875;-0.4229736328125;-1.1048583984375;-20.938931297709924;-8.694656488549619;-14.145038167938932;;
0.0506591796875;-0.4156494140625;-1.1063232421875;-21.541984732824428;-39.51908396946565;-7.549618320610687;;
0.037841796875;-0.397705078125;-1.0528564453125;-8.122137404580153;-15.358778625954198;0.3969465648854962;;
0.0400390625;-0.375732421875;-1.1158447265625;-19.366412213740457;21.450381679389313;-3.6030534351145036;;
0.070556640625;-0.37939453125;-1.095703125;-16.068702290076335;25.99236641221374;-2.015267175572519;;
0.063232421875;-0.3983154296875;-1.100341796875;-16.85496183206107;14.297709923664122;-1.2442748091603053;;
0.072265625;-0.3853759765625;-1.106689453125;-7.534351145038168;-3.183206106870229;-0.5419847328244275;;
0.0777587890625;-0.3944091796875;-1.12890625;-4.1679389312977095;-15.954198473282442;-0.5114503816793893;;
0.067626953125;-0.390380859375;-1.0936279296875;-13.15267175572519;5.526717557251908;-0.26717557251908397;;
0.045166015625;-0.39111328125;-1.0517578125;-5.923664122137405;5.305343511450381;-1.748091603053435;;
0.0325927734375;-0.3905029296875;-1.0523681640625;-3.030534351145038;-8.251908396946565;0.007633587786259542;;
0.041015625;-0.3958740234375;-1.1146240234375;-5.656488549618321;-6.7251908396946565;0.7633587786259542;;
0.0516357421875;-0.3953857421875;-1.1025390625;-4.7251908396946565;-8.48091603053435;1.9541984732824427;;
0.047119140625;-0.3983154296875;-1.10205078125;-2.954198473282443;-13.908396946564885;2.687022900763359;;
0.0360107421875;-0.3873291015625;-1.0906982421875;-5.145038167938932;-11.885496183206106;5.32824427480916;;
0.0504150390625;-0.3817138671875;-1.0860595703125;-7.2748091603053435;3.0381679389312977;4.603053435114504;;
0.0533447265625;-0.382568359375;-1.087646484375;-6.259541984732825;2.3740458015267176;3.7557251908396947;;
0.0455322265625;-0.3759765625;-1.0941162109375;-4.404580152671755;-4.893129770992366;5.00763358778626;;
0.0518798828125;-0.3853759765625;-1.087646484375;-2.068702290076336;2.816793893129771;4.152671755725191;;
0.02783203125;-0.40185546875;-1.0867919921875;-10.381679389312977;-0.022900763358778626;2.954198473282443;;
0.032958984375;-0.3887939453125;-1.067138671875;-5.908396946564886;-3.595419847328244;2.0229007633587788;;
0.0380859375;-0.3798828125;-1.13134765625;-6.450381679389313;-8.770992366412214;3.687022900763359;;
0.03857421875;-0.3892822265625;-1.1217041015625;-10.755725190839694;-2.213740458015267;2.6793893129770994;;
0.0341796875;-0.38427734375;-1.07470703125;-7.358778625954199;6.091603053435114;0.4580152671755725;;
0.0333251953125;-0.3880615234375;-1.0576171875;-5.5038167938931295;11.244274809160306;-0.0916030534351145;;
0.044677734375;-0.37451171875;-1.0771484375;-0.549618320610687;0.183206106870229;1.015267175572519;;
0.0469970703125;-0.3770751953125;-1.110107421875;-3.183206106870229;-4.625954198473282;2.2061068702290076;;
0.0567626953125;-0.384521484375;-1.12890625;-7.236641221374046;-10.038167938931299;2.564885496183206;;
0.0457763671875;-0.3900146484375;-1.0888671875;-9.32824427480916;1.3893129770992367;2.1755725190839694;;
0.0384521484375;-0.371826171875;-1.0665283203125;-5.931297709923665;5.343511450381679;0.7633587786259542;;
0.0350341796875;-0.386962890625;-1.092041015625;-3.3282442748091605;-2.83206106870229;0.46564885496183206;;
0.0391845703125;-0.3795166015625;-1.10791015625;-4.473282442748092;-6.114503816793893;0.6946564885496184;;
0.0460205078125;-0.3673095703125;-1.09814453125;-5.893129770992366;1.8854961832061068;1.297709923664122;;
0.0408935546875;-0.379638671875;-1.106201171875;-3.946564885496183;-1.702290076335878;1.8396946564885497;;
0.047119140625;-0.3597412109375;-1.1016845703125;-3.816793893129771;-8.687022900763358;3.045801526717557;;
0.0400390625;-0.38720703125;-1.0819091796875;-0.8473282442748091;-13.206106870229007;3.9160305343511452;;
0.02685546875;-0.3914794921875;-1.096435546875;-0.9465648854961832;-15.83969465648855;3.732824427480916;;
0.02392578125;-0.37890625;-1.0538330078125;1.0076335877862594;-3.1908396946564888;2.1603053435114505;;
0.0240478515625;-0.3831787109375;-1.1065673828125;7.404580152671755;-13.541984732824428;-1.2748091603053435;;
0.01806640625;-0.3765869140625;-1.111328125;-0.13740458015267176;-10.732824427480915;0.13740458015267176;;
0.0228271484375;-0.3892822265625;-1.1142578125;3.122137404580153;-22.870229007633586;-0.05343511450381679;;
0.018798828125;-0.3707275390625;-1.1190185546875;-8.335877862595419;-1.8473282442748091;-1.2595419847328244;;
0.0213623046875;-0.376708984375;-1.0770263671875;-10.01526717557252;-5.541984732824427;1.1068702290076335;;
-0.000732421875;-0.394775390625;-1.0968017578125;-6.67175572519084;-8.312977099236642;-0.5190839694656488;;
0.0001220703125;-0.3948974609375;-1.0693359375;-8.511450381679388;-12.34351145038168;0.08396946564885496;;
0.0123291015625;-0.3819580078125;-1.0926513671875;-2.3206106870229006;-1.1755725190839694;-0.3435114503816794;;
0.0198974609375;-0.3759765625;-1.1026611328125;-2.4656488549618323;2.984732824427481;-0.40458015267175573;;
0.0147705078125;-0.377685546875;-1.095458984375;-5.3893129770992365;-4.8320610687022905;1.6106870229007633;;
0.0172119140625;-0.3753662109375;-1.0977783203125;-3.282442748091603;2.0839694656488548;1.3435114503816794;;
0.0113525390625;-0.381591796875;-1.106689453125;-2.900763358778626;-5.221374045801527;1.8625954198473282;;
0.0025634765625;-0.392333984375;-1.0924072265625;-1.8625954198473282;-13.694656488549619;0.3969465648854962;;
-0.00048828125;-0.384033203125;-1.083740234375;-6.564885496183206;-7.1679389312977095;-1.4580152671755726;;
0.0142822265625;-0.3695068359375;-1.0767822265625;-4.961832061068702;19.450381679389313;-1.1221374045801527;;
0.01806640625;-0.3853759765625;-1.097412109375;-2.3206106870229006;12.488549618320612;-0.5954198473282443;;
0.008544921875;-0.38671875;-1.1099853515625;-4.0534351145038165;5.213740458015267;-0.04580152671755725;;
0.007568359375;-0.386962890625;-1.10107421875;-2.8396946564885495;-14.786259541984732;0.03816793893129771;;
0.005859375;-0.395263671875;-1.09765625;-6.557251908396947;-15.778625954198473;-0.366412213740458;;
0.0157470703125;-0.37890625;-1.0728759765625;-6.961832061068702;16.80916030534351;-1.0687022900763359;;
0.0224609375;-0.378173828125;-1.08154296875;-3.5343511450381677;8.404580152671755;-1.213740458015267;;
0.0252685546875;-0.3790283203125;-1.1036376953125;-3.83206106870229;0.5572519083969466;0.3816793893129771;;
0.023681640625;-0.376708984375;-1.1153564453125;-1.450381679389313;-11.48091603053435;1.1526717557251909;;
0.021484375;-0.3812255859375;-1.07958984375;-2.9083969465648853;6.847328244274809;1.5419847328244274;;
0.0194091796875;-0.378662109375;-1.0809326171875;-0.5419847328244275;13.786259541984732;2.3587786259541983;;
0.0191650390625;-0.3927001953125;-1.086181640625;-1.549618320610687;-1.6946564885496183;1.4351145038167938;;
0.0091552734375;-0.3975830078125;-1.0980224609375;-0.6183206106870229;-12.664122137404581;1.0305343511450382;;
0.0103759765625;-0.3848876953125;-1.0987548828125;-1.7938931297709924;-15.992366412213741;-0.29770992366412213;;
0.0157470703125;-0.3826904296875;-1.1019287109375;-2.0763358778625953;-28.52671755725191;0.0;;
0.0018310546875;-0.4012451171875;-1.134765625;-4.99236641221374;-51.99236641221374;2.183206106870229;;
-0.018798828125;-0.391845703125;-1.083740234375;-2.6564885496183206;-57.80916030534351;2.3282442748091605;;
-0.0408935546875;-0.3907470703125;-1.0888671875;10.259541984732824;-65.0381679389313;1.1908396946564885;;
-0.074951171875;-0.4373779296875;-1.0906982421875;18.435114503816795;-114.14503816793894;0.7404580152671756;;
-0.11474609375;-0.442626953125;-1.1068115234375;16.68702290076336;-189.51908396946564;-1.0916030534351144;;
-0.1343994140625;-0.417724609375;-1.118896484375;18.53435114503817;-225.5114503816794;-6.99236641221374;;
-0.1982421875;-0.40966796875;-1.06689453125;17.53435114503817;-250.13740458015266;0.3893129770992366;;
-0.223876953125;-0.474853515625;-1.0299072265625;31.931297709923665;-250.13740458015266;-22.083969465648856;;
-0.2958984375;-0.37060546875;-0.9208984375;42.778625954198475;-218.13740458015266;-40.954198473282446;;
-0.3836669921875;-0.4139404296875;-0.9549560546875;45.29770992366412;-156.5648854961832;-44.541984732824424;;
-0.4327392578125;-0.4410400390625;-0.93408203125;30.290076335877863;-164.72519083969465;-33.02290076335878;;
-0.4383544921875;-0.39990234375;-0.8751220703125;31.786259541984734;-160.22137404580153;-40.05343511450382;;
-0.455322265625;-0.5494384765625;-0.8367919921875;-1.1908396946564885;-212.7175572519084;-36.152671755725194;;
-0.4375;-0.502685546875;-0.8687744140625;5.977099236641221;-250.13740458015266;-44.091603053435115;;
-0.7862548828125;-0.3846435546875;-0.61376953125;29.282442748091604;-250.13740458015266;-6.877862595419847;;
-0.688232421875;-0.4771728515625;-0.3963623046875;111.01526717557252;-250.13740458015266;6.938931297709924;;
-0.7110595703125;-0.5;-0.504638671875;77.67175572519083;-235.10687022900763;-78.38167938931298;;
-0.994140625;-0.3990478515625;-0.1400146484375;107.37404580152672;-250.13740458015266;-21.938931297709924;;
-0.997802734375;-0.597900390625;-0.7464599609375;125.82442748091603;-250.13740458015266;61.67175572519084;;
-0.7857666015625;-0.50830078125;0.0306396484375;218.48091603053436;-250.13740458015266;-85.29770992366412;;
-0.5609130859375;-0.619384765625;0.2703857421875;218.6259541984733;-250.13740458015266;-116.73282442748092;;
0.067138671875;-1.336669921875;0.4500732421875;54.900763358778626;-250.13740458015266;-250.13740458015266;;
-1.139404296875;-0.494140625;0.2816162109375;17.0381679389313;-250.13740458015266;-9.198473282442748;;
-0.0821533203125;-0.675537109375;0.5975341796875;78.93893129770993;-250.13740458015266;-21.931297709923665;;
-0.0213623046875;-0.5123291015625;0.499267578125;42.52671755725191;-250.13740458015266;-41.32824427480916;;
-0.0594482421875;-0.5828857421875;0.613525390625;8.84732824427481;-250.13740458015266;-43.900763358778626;;
0.1893310546875;-0.577880859375;0.7847900390625;-20.9618320610687;-242.0229007633588;-32.25954198473283;;
0.16015625;-0.5380859375;0.894775390625;66.74809160305344;-250.13740458015266;-28.557251908396946;;
0.284912109375;-0.56884765625;0.523681640625;67.92366412213741;-209.54961832061068;-2.9160305343511452;;
0.3677978515625;-0.55322265625;0.551025390625;84.49618320610686;-164.93129770992365;0.4732824427480916;;
0.41455078125;-0.51513671875;0.6683349609375;71.49618320610686;-115.20610687022901;12.091603053435115;;
0.4932861328125;-0.462646484375;0.6099853515625;53.01526717557252;-107.76335877862596;-43.52671755725191;;
0.5693359375;-0.4388427734375;0.480712890625;62.25954198473283;-106.59541984732824;-8.312977099236642;;
0.3905029296875;-0.363525390625;0.530517578125;96.22137404580153;-113.57251908396947;-21.366412213740457;;
0.4376220703125;-0.356201171875;0.45849609375;124.95419847328245;-191.5114503816794;-33.6412213740458;;
0.570068359375;-0.3563232421875;0.4732666015625;84.10687022900764;-247.01526717557252;-27.091603053435115;;
0.7279052734375;-0.3880615234375;0.6309814453125;40.66412213740458;-250.13740458015266;-25.34351145038168;;
0.7296142578125;-0.38134765625;0.674560546875;39.85496183206107;-250.13740458015266;-5.786259541984733;;
0.7064208984375;-0.359619140625;0.5986328125;25.87786259541985;-249.75572519083968;5.396946564885496;;
0.80859375;-0.316162109375;0.496337890625;-37.954198473282446;-230.3969465648855;-3.3206106870229006;;
0.82861328125;-0.3895263671875;0.426025390625;-71.02290076335878;-226.61068702290078;-8.49618320610687;;
0.8543701171875;-0.336181640625;0.3646240234375;-79.38931297709924;-226.87022900763358;-8.580152671755725;;
0.9422607421875;-0.3575439453125;0.4971923828125;-85.40458015267176;-238.80152671755727;-5.061068702290076;;
0.9117431640625;-0.3262939453125;0.455078125;-105.3206106870229;-234.5801526717557;-9.221374045801527;;
0.989501953125;-0.3455810546875;0.589111328125;-114.25190839694656;-250.13740458015266;-11.312977099236642;;
0.9976806640625;-0.41943359375;0.3958740234375;-123.09923664122137;-250.13740458015266;-13.977099236641221;;
0.96142578125;-0.39111328125;-0.08349609375;-139.49618320610688;-213.04580152671755;-19.83206106870229;;
0.968017578125;-0.3853759765625;-0.149169921875;-124.64885496183206;-238.31297709923663;-16.778625954198475;;
1.0054931640625;-0.4022216796875;-0.26171875;-92.81679389312977;-243.55725190839695;-13.183206106870228;;
1.00390625;-0.4100341796875;-0.286376953125;-96.96946564885496;-238.50381679389312;-10.335877862595419;;
0.9710693359375;-0.39453125;-0.3177490234375;-57.11450381679389;-214.91603053435114;-12.229007633587786;;
0.8828125;-0.3443603515625;-0.3907470703125;-56.69465648854962;-174.42748091603053;-16.18320610687023;;
0.8887939453125;-0.3648681640625;-0.398681640625;-58.81679389312977;-118.90076335877863;-19.83206106870229;;
0.8289794921875;-0.3050537109375;-0.5196533203125;-45.3206106870229;-76.22900763358778;-14.694656488549619;;
0.831787109375;-0.3001708984375;-0.6055908203125;-41.99236641221374;-100.12977099236642;-21.137404580152673;;
0.8944091796875;-0.3447265625;-0.5667724609375;-47.05343511450382;-81.13740458015268;-20.519083969465647;;
0.8841552734375;-0.2728271484375;-0.702880859375;-49.20610687022901;-90.55725190839695;-19.12213740458015;;
0.92041015625;-0.28662109375;-0.671142578125;-46.55725190839695;-127.45801526717557;-31.48854961832061;;
0.927001953125;-0.307373046875;-0.6307373046875;-38.900763358778626;-122.31297709923665;-25.96946564885496;;
0.8841552734375;-0.2530517578125;-0.7305908203125;-31.244274809160306;-102.30534351145039;-24.114503816793892;;
0.8721923828125;-0.2703857421875;-0.7244873046875;-37.7557251908397;-99.58778625954199;-28.17557251908397;;
0.8746337890625;-0.271728515625;-0.735595703125;-34.11450381679389;-89.45801526717557;-22.297709923664122;;
0.8485107421875;-0.2432861328125;-0.739013671875;-30.35114503816794;-79.93893129770993;-21.786259541984734;;
0.8197021484375;-0.237060546875;-0.824951171875;-33.954198473282446;-42.58015267175573;-19.0381679389313;;
0.8077392578125;-0.20947265625;-0.8218994140625;-31.045801526717558;-42.87022900763359;-13.297709923664122;;
0.819580078125;-0.20458984375;-0.84619140625;-61.587786259541986;-79.93893129770993;-26.778625954198475;;
0.8148193359375;-0.25537109375;-0.8509521484375;-71.70992366412214;-36.847328244274806;-30.931297709923665;;
0.77880859375;-0.1549072265625;-0.806884765625;-64.44274809160305;-115.14503816793894;-57.091603053435115;;
0.7701416015625;-0.1783447265625;-0.8741455078125;-26.00763358778626;-94.05343511450381;-13.801526717557252;;
0.7352294921875;-0.145751953125;-0.95068359375;-12.091603053435115;-76.19847328244275;-20.404580152671755;;
0.7216796875;-0.1295166015625;-0.9334716796875;-5.679389312977099;-86.57251908396947;-12.992366412213741;;
0.72802734375;-0.1668701171875;-0.929931640625;-17.244274809160306;-77.8854961832061;-38.274809160305345;;
0.6326904296875;-0.167724609375;-0.8682861328125;-1.8854961832061068;-69.22900763358778;-9.679389312977099;;
0.630615234375;-0.118896484375;-0.9307861328125;-6.7251908396946565;-39.47328244274809;-6.67175572519084;;
0.6861572265625;-0.129638671875;-0.908935546875;-12.82442748091603;-45.847328244274806;-2.366412213740458;;
0.6207275390625;-0.1717529296875;-0.8741455078125;-3.145038167938931;16.267175572519083;4.66412213740458;;
0.579345703125;-0.09716796875;-0.9658203125;-0.8015267175572519;22.908396946564885;4.7251908396946565;;
0.6187744140625;-0.1171875;-0.950927734375;-7.770992366412214;0.26717557251908397;-3.2900763358778624;;
0.66162109375;-0.1402587890625;-0.929931640625;-2.0381679389312977;-6.557251908396947;-2.3893129770992365;;
0.6456298828125;-0.1070556640625;-0.9437255859375;-4.938931297709924;-2.045801526717557;0.5877862595419847;;
0.67138671875;-0.1263427734375;-0.9072265625;-2.3893129770992365;-6.1679389312977095;-4.648854961832061;;
0.66552734375;-0.1285400390625;-0.9400634765625;-3.0229007633587788;3.8091603053435112;-0.7633587786259542;;
0.6700439453125;-0.1080322265625;-0.9639892578125;-6.320610687022901;-10.870229007633588;-2.6564885496183206;;
0.6842041015625;-0.126220703125;-0.9278564453125;-11.587786259541986;-9.145038167938932;1.0076335877862594;;
0.654296875;-0.120361328125;-0.903076171875;-0.9389312977099237;11.98473282442748;4.083969465648855;;
0.6260986328125;-0.1219482421875;-0.988525390625;1.4809160305343512;17.96946564885496;3.564885496183206;;
0.6688232421875;-0.109130859375;-0.9923095703125;-8.900763358778626;-4.557251908396947;-1.717557251908397;;
0.676513671875;-0.123779296875;-0.929931640625;-10.419847328244275;6.7251908396946565;5.961832061068702;;
0.649658203125;-0.1109619140625;-0.919189453125;-10.442748091603054;19.35114503816794;6.641221374045801;;
0.635009765625;-0.1217041015625;-0.9112548828125;-9.946564885496183;31.9618320610687;7.694656488549619;;
0.618896484375;-0.108642578125;-0.91552734375;-16.458015267175572;51.35114503816794;8.923664122137405;;
0.6365966796875;-0.108154296875;-0.905517578125;-29.625954198473284;76.48091603053435;15.068702290076336;;
0.655517578125;-0.0975341796875;-0.93896484375;-49.282442748091604;118.90839694656489;23.259541984732824;;
0.76904296875;-0.1248779296875;-0.806884765625;-63.29007633587786;162.70992366412213;22.419847328244273;;
0.7384033203125;-0.1668701171875;-0.89208984375;-4.778625954198473;143.93893129770993;18.00763358778626;;
0.88671875;-0.1356201171875;-0.6522216796875;21.755725190839694;217.17557251908397;40.51908396946565;;
0.8837890625;-0.21337890625;-0.5799560546875;41.29007633587786;250.12977099236642;73.38167938931298;;
1.402099609375;-0.2314453125;-0.5255126953125;52.74809160305343;250.12977099236642;150.793893129771;;
0.6617431640625;-0.0843505859375;-0.3958740234375;41.2442748091603;250.12977099236642;101.25190839694656;;
1.0101318359375;-0.163818359375;-0.4097900390625;45.6793893129771;250.12977099236642;84.61832061068702;;
1.1407470703125;-0.31689453125;-0.187255859375;18.129770992366414;250.12977099236642;73.1145038167939;;
1.0106201171875;-0.2764892578125;0.1016845703125;20.96946564885496;250.12977099236642;87.98473282442748;;
1.1026611328125;-0.356689453125;0.0595703125;42.82442748091603;250.12977099236642;114.34351145038168;;
1.044677734375;-0.47900390625;0.275146484375;71.21374045801527;250.12977099236642;142.6946564885496;;
0.934814453125;-0.7236328125;0.4254150390625;-27.977099236641223;250.12977099236642;230.89312977099237;;
0.9541015625;0.4771728515625;0.5311279296875;44.732824427480914;250.12977099236642;68.85496183206106;;
0.989501953125;-0.5587158203125;0.4501953125;43.25190839694657;250.12977099236642;105.8854961832061;;
0.8660888671875;-0.5931396484375;0.26904296875;17.33587786259542;185.6030534351145;76.6793893129771;;
0.7218017578125;-0.533203125;0.60400390625;29.770992366412212;250.12977099236642;69.85496183206106;;
0.6612548828125;-0.5340576171875;0.54736328125;2.015267175572519;250.12977099236642;53.00763358778626;;
0.6982421875;-0.644775390625;0.67919921875;-44.465648854961835;242.08396946564886;14.290076335877863;;
0.449462890625;-0.541259765625;0.772705078125;-46.48091603053435;150.793893129771;48.62595419847328;;
0.5458984375;-0.4935302734375;0.572509765625;-34.152671755725194;183.06106870229007;-17.778625954198475;;
-0.8651123046875;-0.369873046875;0.659423828125;-99.05343511450381;200.34351145038167;-55.97709923664122;;
-0.4390869140625;-0.49267578125;0.5079345703125;-127.90076335877863;124.87786259541984;127.83206106870229;;
0.3726806640625;-0.554931640625;0.6351318359375;-148.0763358778626;7.66412213740458;172.90076335877862;;
0.0782470703125;-0.6575927734375;0.4921875;-157.93893129770993;-122.16030534351145;138.99236641221373;;
0.252197265625;-0.8583984375;0.4842529296875;-167.7175572519084;-150.74809160305344;162.25954198473283;;
0.1390380859375;-0.96044921875;0.3701171875;-161.29770992366412;-204.63358778625954;133.01526717557252;;
0.2369384765625;-0.772705078125;0.5301513671875;-156.7709923664122;-168.25190839694656;155.72519083969465;;
0.37060546875;-0.74755859375;0.4527587890625;-147.36641221374046;-154.17557251908397;143.7709923664122;;
0.2681884765625;-0.65869140625;0.378662109375;-170.98473282442748;-183.64885496183206;185.3053435114504;;
-0.03271484375;-1.085205078125;0.21337890625;-202.18320610687022;-250.13740458015266;201.1679389312977;;
0.0941162109375;-1.0230712890625;0.1702880859375;-213.36641221374046;-229.19847328244273;181.53435114503816;;
0.32763671875;-0.9144287109375;0.249267578125;-156.74809160305344;-83.45038167938931;186.09923664122138;;
0.445556640625;-0.70703125;0.4046630859375;-30.603053435114504;250.12977099236642;104.52671755725191;;
0.6143798828125;-0.577392578125;0.4085693359375;-135.4732824427481;154.09923664122138;67.32824427480917;;
0.135009765625;-0.939453125;0.046630859375;-204.38931297709922;217.3740458015267;83.74045801526718;;
0.098876953125;-0.852783203125;0.176025390625;-202.8091603053435;250.12977099236642;23.954198473282442;;
0.03173828125;-0.7591552734375;-0.090087890625;-168.12213740458014;250.12977099236642;-8.885496183206106;;
0.0731201171875;-0.953857421875;-0.0645751953125;-186.31297709923663;148.9770992366412;-26.229007633587788;;
0.0733642578125;-1.120361328125;-0.24169921875;-180.45038167938932;76.72519083969466;-27.297709923664122;;
0.1458740234375;-0.9857177734375;-0.3511962890625;-84.66412213740458;117.54961832061069;13.900763358778626;;
0.08740234375;-0.9534912109375;-0.2783203125;-77.83206106870229;142.48091603053436;44.38167938931298;;
0.12890625;-1.1116943359375;-0.19384765625;-101.44274809160305;195.54198473282443;47.89312977099237;;
-0.086669921875;-1.0213623046875;-0.1497802734375;-81.80152671755725;100.6030534351145;94.85496183206106;;
0.2017822265625;-0.9908447265625;-0.181640625;-32.16030534351145;111.66412213740458;93.31297709923665;;
0.1002197265625;-0.9158935546875;0.554443359375;67.26717557251908;48.13740458015267;119.21374045801527;;
0.1309814453125;-0.8740234375;-0.869384765625;41.847328244274806;-250.13740458015266;-153.49618320610688;;
-0.0196533203125;-1.0938720703125;-0.1539306640625;-35.63358778625954;31.389312977099237;42.152671755725194;;
-0.1414794921875;-1.0120849609375;-0.1429443359375;-26.221374045801525;51.595419847328245;48.76335877862596;;
-0.0333251953125;-0.942626953125;-0.2608642578125;1.6564885496183206;92.16793893129771;61.3587786259542;;
-0.076904296875;-0.9600830078125;-0.2716064453125;-27.80916030534351;86.69465648854961;23.99236641221374;;
-0.1090087890625;-1.041015625;-0.2843017578125;-19.061068702290076;78.48091603053435;13.679389312977099;;
-0.097900390625;-0.997314453125;-0.287109375;-19.3206106870229;91.31297709923665;17.46564885496183;;
-0.123779296875;-0.9481201171875;-0.3203125;-5.580152671755725;144.3587786259542;41.29770992366412;;
-0.1397705078125;-0.964111328125;-0.304931640625;-21.076335877862597;144.16030534351145;49.74809160305343;;
-0.1683349609375;-0.946044921875;-0.2939453125;3.3893129770992365;117.89312977099236;67.06106870229007;;
-0.134765625;-1.0015869140625;-0.3282470703125;26.198473282442748;137.6259541984733;86.53435114503817;;
-0.059326171875;-1.018310546875;-0.3353271484375;30.748091603053435;163.9083969465649;95.29007633587786;;
0.013427734375;-1.0087890625;-0.3505859375;-11.030534351145038;88.73282442748092;79.07633587786259;;
-0.1595458984375;-1.0045166015625;-0.332763671875;-33.31297709923664;45.70992366412214;34.86259541984733;;
-0.2110595703125;-0.9295654296875;-0.2996826171875;-16.977099236641223;27.870229007633586;27.709923664122137;;
-0.1494140625;-0.876953125;-0.324462890625;-3.2977099236641223;33.396946564885496;3.3053435114503817;;
-0.1978759765625;-0.9202880859375;-0.339599609375;4.152671755725191;35.63358778625954;2.687022900763359;;
-0.2198486328125;-0.9129638671875;-0.371337890625;12.98473282442748;27.53435114503817;7.870229007633588;;
-0.333251953125;-0.852783203125;-0.4005126953125;-0.015267175572519083;11.908396946564885;16.549618320610687;;
-0.1710205078125;-0.9349365234375;-0.3687744140625;5.770992366412214;13.770992366412214;-8.572519083969466;;
-0.16650390625;-0.9075927734375;-0.3677978515625;2.6793893129770994;18.732824427480917;-20.389312977099237;;
-0.1817626953125;-0.9534912109375;-0.3798828125;0.4122137404580153;13.213740458015268;-27.244274809160306;;
-0.1724853515625;-0.985595703125;-0.367431640625;5.4961832061068705;14.0;-19.83969465648855;;
-0.1573486328125;-0.9666748046875;-0.3546142578125;13.84732824427481;29.106870229007633;-18.045801526717558;;
0.008544921875;-0.913330078125;-0.350830078125;-5.648854961832061;22.480916030534353;-21.419847328244273;;
-0.181396484375;-1.0457763671875;-0.367919921875;-3.3206106870229006;18.763358778625953;-29.290076335877863;;
-0.2958984375;-0.97412109375;-0.498291015625;-14.908396946564885;8.786259541984732;-7.801526717557252;;
-0.129638671875;-1.0050048828125;-0.3603515625;-0.366412213740458;8.19083969465649;-12.51908396946565;;
-0.0894775390625;-0.9501953125;-0.3480224609375;-3.3053435114503817;0.3893129770992366;-25.66412213740458;;
-0.0966796875;-0.94482421875;-0.33837890625;-2.9236641221374047;-1.916030534351145;-37.541984732824424;;
-0.08642578125;-0.9888916015625;-0.3455810546875;0.8702290076335878;8.038167938931299;-34.74045801526717;;
-0.0848388671875;-0.9693603515625;-0.3409423828125;5.961832061068702;12.748091603053435;-20.412213740458014;;
-0.089599609375;-0.9720458984375;-0.3536376953125;9.694656488549619;19.282442748091604;-21.732824427480917;;
0.10205078125;-1.0546875;-0.0889892578125;-17.763358778625953;7.595419847328245;-22.450381679389313;;
-0.06005859375;-0.988525390625;-0.3306884765625;-7.374045801526718;14.076335877862595;-8.007633587786259;;
-0.0982666015625;-0.92724609375;-0.391357421875;-10.48091603053435;20.38167938931298;0.05343511450381679;;
-0.0494384765625;-0.958251953125;-0.3514404296875;-12.381679389312977;14.274809160305344;-7.938931297709924;;
-0.059326171875;-0.972412109375;-0.37353515625;-15.290076335877863;12.977099236641221;-10.526717557251908;;
-0.0333251953125;-0.9603271484375;-0.3485107421875;-16.396946564885496;18.885496183206108;-12.236641221374045;;
-0.063720703125;-0.9638671875;-0.3817138671875;-10.977099236641221;13.98473282442748;-7.854961832061068;;
-0.03857421875;-0.926513671875;-0.40234375;-12.687022900763358;9.83206106870229;-4.0458015267175576;;
-0.0406494140625;-0.936767578125;-0.3785400390625;-7.33587786259542;5.152671755725191;-1.9312977099236641;;
-0.031982421875;-0.922119140625;-0.362060546875;-2.3282442748091605;1.7404580152671756;-3.519083969465649;;
-0.0225830078125;-0.9188232421875;-0.3642578125;-2.66412213740458;-1.7786259541984732;-7.244274809160306;;
-0.055419921875;-0.9488525390625;-0.3468017578125;4.33587786259542;-10.442748091603054;-4.145038167938932;;
-0.0352783203125;-0.935546875;-0.358642578125;13.442748091603054;-22.625954198473284;0.12213740458015267;;
-0.058837890625;-0.9208984375;-0.3177490234375;25.51145038167939;-46.786259541984734;2.3893129770992365;;
-0.0887451171875;-0.901611328125;-0.18505859375;60.541984732824424;-125.86259541984732;11.083969465648854;;
-0.02099609375;-0.91015625;-0.3477783203125;98.86259541984732;-250.13740458015266;43.63358778625954;;
0.16845703125;-0.940185546875;-0.0360107421875;117.08396946564885;-250.13740458015266;-24.51145038167939;;
-0.108642578125;-1.1087646484375;0.18603515625;250.12977099236642;-250.13740458015266;-92.00763358778626;;
-0.2947998046875;-0.9788818359375;0.3504638671875;250.12977099236642;-250.13740458015266;-113.70992366412214;;
-0.232666015625;-1.0787353515625;0.4246826171875;250.12977099236642;-250.13740458015266;-60.786259541984734;;
-0.185791015625;-1.011474609375;0.2216796875;250.12977099236642;-229.9618320610687;-73.3969465648855;;
0.059326171875;-0.90673828125;0.3851318359375;250.12977099236642;-79.35114503816794;-18.564885496183205;;
-0.0634765625;-0.694580078125;0.7371826171875;250.12977099236642;-43.89312977099237;33.786259541984734;;
0.05517578125;-0.45458984375;0.7156982421875;250.12977099236642;-50.0;71.52671755725191;;
0.1158447265625;-0.435302734375;0.7030029296875;231.3969465648855;-80.38931297709924;60.9236641221374;;
0.260498046875;-0.363037109375;0.7940673828125;165.64885496183206;-69.07633587786259;-0.7251908396946565;;
0.20166015625;-0.3883056640625;0.8447265625;142.74809160305344;-13.351145038167939;-18.96946564885496;;
0.1666259765625;-0.2769775390625;0.8634033203125;112.19847328244275;-4.236641221374046;-3.1374045801526718;;
0.1573486328125;-0.210205078125;0.82373046875;107.74809160305344;-3.717557251908397;1.4351145038167938;;
0.065673828125;-0.1722412109375;0.841796875;103.86259541984732;9.65648854961832;30.717557251908396;;
0.2479248046875;-0.2818603515625;0.9041748046875;110.93129770992367;10.419847328244275;50.038167938931295;;
0.2529296875;-0.2464599609375;1.0111083984375;169.81679389312978;18.717557251908396;40.74045801526717;;
0.193359375;-0.1697998046875;0.8599853515625;179.84732824427482;7.587786259541985;24.129770992366414;;
0.1566162109375;0.044677734375;0.7974853515625;161.78625954198472;28.213740458015266;16.404580152671755;;
0.1749267578125;0.009765625;0.743896484375;152.06106870229007;3.1755725190839694;-3.1068702290076335;;
1.1402587890625;0.1297607421875;1.7032470703125;136.45038167938932;75.99236641221374;18.9618320610687;;
0.2896728515625;-0.258544921875;1.20068359375;151.9236641221374;-6.541984732824427;-8.251908396946565;;
0.3250732421875;0.1221923828125;0.926513671875;157.58778625954199;-6.5038167938931295;-62.099236641221374;;
0.0506591796875;0.2266845703125;0.91162109375;120.17557251908397;-34.37404580152672;-74.35114503816794;;
0.05322265625;0.35791015625;0.8070068359375;66.18320610687023;-45.6412213740458;-56.82442748091603;;
-0.0081787109375;0.2371826171875;0.9560546875;59.14503816793893;-18.908396946564885;-83.70992366412214;;
0.07568359375;0.2999267578125;0.897216796875;40.656488549618324;-5.931297709923665;-97.36641221374046;;
0.1181640625;0.3062744140625;0.8087158203125;4.320610687022901;-3.7404580152671754;-56.74809160305343;;
0.0462646484375;0.1378173828125;0.8280029296875;19.0;12.526717557251908;-45.3587786259542;;
0.046630859375;0.17041015625;0.935546875;40.083969465648856;10.435114503816793;-50.80916030534351;;
0.0615234375;0.4417724609375;0.8271484375;30.954198473282442;-23.16030534351145;-40.00763358778626;;
0.05908203125;0.4814453125;0.8079833984375;18.87786259541985;-33.76335877862596;-32.458015267175576;;
0.0960693359375;0.3170166015625;0.760009765625;7.267175572519084;-38.229007633587784;-13.129770992366412;;
0.118896484375;0.294921875;0.7357177734375;24.16793893129771;-29.19083969465649;-5.137404580152672;;
0.12646484375;0.3387451171875;0.8206787109375;20.33587786259542;-27.671755725190838;17.282442748091604;;
0.132568359375;0.4609375;0.8670654296875;1.251908396946565;-2.3587786259541983;26.091603053435115;;
0.11279296875;0.4658203125;0.78662109375;0.48091603053435117;-11.618320610687023;13.01526717557252;;
0.124755859375;0.388427734375;0.802001953125;-13.870229007633588;-7.770992366412214;10.13740458015267;;
0.14599609375;0.3759765625;0.79248046875;-27.83206106870229;-10.687022900763358;6.580152671755725;;
0.1654052734375;0.3458251953125;0.7713623046875;-9.65648854961832;-17.480916030534353;14.122137404580153;;
0.13818359375;0.33203125;0.8118896484375;-26.389312977099237;-8.587786259541986;35.47328244274809;;
0.15771484375;0.3792724609375;0.8406982421875;-38.732824427480914;-17.198473282442748;33.79389312977099;;
0.133056640625;0.396728515625;0.91162109375;-22.068702290076335;-34.404580152671755;26.862595419847327;;
0.096923828125;0.3773193359375;0.8511962890625;-61.45038167938932;-43.83206106870229;17.229007633587788;;
0.2083740234375;0.35791015625;0.640380859375;-77.32824427480917;-30.580152671755727;18.6793893129771;;
0.2633056640625;0.350830078125;0.6951904296875;-23.66412213740458;-36.20610687022901;19.595419847328245;;
0.2052001953125;0.3043212890625;0.8408203125;-35.42748091603053;-33.55725190839695;16.625954198473284;;
0.31201171875;0.3248291015625;0.8951416015625;-47.44274809160305;-29.641221374045802;2.4885496183206106;;
0.2945556640625;0.3408203125;0.8377685546875;-37.954198473282446;-21.671755725190838;7.030534351145038;;
0.289306640625;0.3311767578125;0.7838134765625;-45.045801526717554;-28.076335877862597;1.9541984732824427;;
0.2613525390625;0.3043212890625;0.7750244140625;-53.06106870229008;-34.12213740458015;-8.961832061068701;;
0.229248046875;0.1790771484375;0.9832763671875;-60.05343511450382;-50.69465648854962;14.061068702290076;;
0.369140625;0.150390625;0.834716796875;-81.14503816793894;-47.06870229007634;-4.519083969465649;;
0.323974609375;0.11474609375;0.78515625;-57.80152671755725;-55.083969465648856;35.52671755725191;;
0.4073486328125;0.176025390625;0.936767578125;-82.09923664122137;-56.6793893129771;51.2442748091603;;
0.3695068359375;0.1322021484375;0.7884521484375;-78.20610687022901;-50.63358778625954;43.76335877862596;;
0.4119873046875;0.1480712890625;0.7545166015625;-87.0;-45.25190839694657;22.87786259541985;;
0.322265625;0.16552734375;0.8062744140625;-84.12213740458016;-42.900763358778626;9.32824427480916;;
0.3948974609375;-0.01318359375;0.8612060546875;-78.69465648854961;-41.038167938931295;2.6030534351145036;;
0.3587646484375;0.001220703125;0.942626953125;-66.01526717557252;-32.32824427480916;14.236641221374045;;
0.46142578125;0.0419921875;0.8468017578125;-55.52671755725191;-15.748091603053435;14.122137404580153;;
0.4403076171875;-0.001708984375;0.7635498046875;-33.79389312977099;-10.198473282442748;31.404580152671755;;
0.40625;-0.06884765625;0.805419921875;-20.404580152671755;-2.1297709923664123;34.87786259541985;;
0.3829345703125;0.0645751953125;0.7337646484375;-40.36641221374046;-0.3435114503816794;15.267175572519085;;
0.36279296875;-0.0123291015625;0.7816162109375;-46.19083969465649;-12.778625954198473;9.595419847328245;;
0.3590087890625;0.0184326171875;0.78759765625;-51.10687022900763;-18.16793893129771;-4.931297709923665;;
0.4290771484375;-0.025146484375;0.868408203125;-57.57251908396947;-18.908396946564885;-17.801526717557252;;
0.4393310546875;-0.0947265625;0.9312744140625;-49.97709923664122;-3.877862595419847;-19.31297709923664;;
0.44140625;-0.020751953125;0.9208984375;-62.06106870229008;3.854961832061069;-11.717557251908397;;
0.4600830078125;-0.0810546875;0.8619384765625;-63.86259541984733;1.183206106870229;-2.5572519083969465;;
0.3837890625;0.0406494140625;0.67138671875;-42.99236641221374;-18.16030534351145;37.87786259541985;;
0.4537353515625;-0.1273193359375;0.804443359375;-125.95419847328245;-14.82442748091603;-1.1526717557251909;;
0.466552734375;-0.1748046875;0.700439453125;-123.96946564885496;-11.954198473282442;5.488549618320611;;
0.4725341796875;-0.1417236328125;0.74609375;-104.5114503816794;-25.801526717557252;22.18320610687023;;
0.8543701171875;-0.0394287109375;0.1614990234375;20.6793893129771;-58.10687022900763;36.51145038167939;;
0.515380859375;-0.724853515625;0.81494140625;-117.80916030534351;-48.44274809160305;-0.6183206106870229;;
0.365234375;-0.32080078125;0.6337890625;-92.22900763358778;-32.11450381679389;15.267175572519085;;
0.3948974609375;-0.2794189453125;0.58642578125;-5.984732824427481;-15.778625954198473;55.01526717557252;;
0.4019775390625;-0.1947021484375;0.58740234375;-24.84732824427481;-17.83969465648855;44.152671755725194;;
0.447509765625;-0.2772216796875;0.7347412109375;-42.79389312977099;-21.091603053435115;41.847328244274806;;
0.4420166015625;-0.2684326171875;0.7537841796875;-26.46564885496183;-15.587786259541986;41.79389312977099;;
0.4267578125;-0.214599609375;0.7247314453125;0.6183206106870229;-3.4427480916030535;53.87022900763359;;
0.4041748046875;-0.2694091796875;0.8309326171875;114.17557251908397;39.80152671755725;61.38167938931298;;
0.443115234375;-0.2105712890625;0.7703857421875;113.66412213740458;62.55725190839695;69.09160305343511;;
0.467529296875;-0.26513671875;0.9329833984375;45.778625954198475;47.3587786259542;49.42748091603053;;
0.4127197265625;-0.2493896484375;1.140869140625;187.3587786259542;153.46564885496184;66.95419847328245;;
0.384521484375;-0.090576171875;0.86181640625;250.12977099236642;199.5801526717557;52.63358778625954;;
0.2506103515625;-0.0367431640625;0.777099609375;226.8854961832061;196.24427480916032;16.81679389312977;;
0.13671875;-0.000732421875;0.8912353515625;250.12977099236642;174.75572519083968;12.274809160305344;;
0.09423828125;0.1474609375;0.744873046875;186.1679389312977;161.95419847328245;9.870229007633588;;
0.0267333984375;0.201416015625;0.83837890625;112.09923664122137;108.35114503816794;19.557251908396946;;
0.00439453125;0.26708984375;0.89892578125;179.6030534351145;151.90076335877862;31.053435114503817;;
-0.0509033203125;0.3900146484375;0.84716796875;208.99236641221373;144.4351145038168;29.31297709923664;;
-0.1014404296875;0.853271484375;0.4466552734375;174.5267175572519;132.5267175572519;42.51908396946565;;
-0.146484375;0.377197265625;0.6820068359375;188.70229007633588;122.70992366412214;54.32824427480916;;
-0.135009765625;0.44775390625;0.6376953125;158.93129770992365;106.06870229007633;68.63358778625954;;
-0.1937255859375;0.6793212890625;0.6026611328125;42.900763358778626;74.00763358778626;68.70229007633588;;
-0.12109375;0.715576171875;0.635986328125;50.20610687022901;70.36641221374046;79.67175572519083;;
0.226318359375;1.19873046875;0.329833984375;113.91603053435115;142.55725190839695;65.79389312977099;;
-0.3160400390625;0.630615234375;0.318115234375;64.2442748091603;74.16030534351145;105.22900763358778;;
-0.236083984375;0.6729736328125;0.467529296875;-128.46564885496184;-130.2290076335878;105.5114503816794;;
-0.1375732421875;0.5552978515625;0.712890625;-202.5114503816794;-195.35114503816794;66.0381679389313;;
-0.0821533203125;0.443359375;0.7490234375;-163.1145038167939;-116.77862595419847;43.83206106870229;;
0.098388671875;0.557861328125;0.7181396484375;0.33587786259541985;-115.80152671755725;26.091603053435115;;
0.089599609375;0.679443359375;0.8541259765625;54.36641221374046;-23.82442748091603;-16.061068702290076;;
-0.109375;0.5733642578125;0.5355224609375;63.86259541984733;-52.12213740458015;17.389312977099237;;
-0.0816650390625;0.5277099609375;0.6629638671875;64.50381679389314;-34.282442748091604;24.404580152671755;;
0.1053466796875;0.635498046875;0.7935791015625;69.13740458015268;-17.87786259541985;-4.404580152671755;;
0.105224609375;0.634765625;0.6431884765625;66.3969465648855;5.282442748091603;-24.83969465648855;;
0.0452880859375;0.67626953125;0.5811767578125;63.47328244274809;-0.22900763358778625;-18.572519083969464;;
0.0335693359375;0.767822265625;0.5721435546875;79.01526717557252;-33.541984732824424;-10.320610687022901;;
0.0374755859375;0.65966796875;0.545166015625;90.87022900763358;-31.671755725190838;-25.206106870229007;;
0.028564453125;0.637939453125;0.5601806640625;37.16793893129771;-30.106870229007633;-5.908396946564886;;
0.070556640625;0.7476806640625;0.6109619140625;16.702290076335878;-23.9618320610687;-2.366412213740458;;
0.0745849609375;0.758544921875;0.5709228515625;26.69465648854962;-16.045801526717558;-17.045801526717558;;
0.056396484375;0.703857421875;0.5599365234375;25.732824427480917;-9.198473282442748;-19.64885496183206;;
0.0550537109375;0.765625;0.551025390625;33.404580152671755;-8.572519083969466;-16.15267175572519;;
0.0452880859375;0.76318359375;0.5244140625;34.87786259541985;-2.0;-11.442748091603054;;
0.040283203125;0.755859375;0.50537109375;-1.9694656488549618;-10.916030534351146;-0.6106870229007634;;
0.039306640625;0.758056640625;0.49609375;-7.816793893129771;-22.18320610687023;5.625954198473282;;
0.075439453125;0.78564453125;0.5079345703125;32.16793893129771;-11.022900763358779;-5.33587786259542;;
0.091552734375;0.7864990234375;0.5245361328125;16.16793893129771;-10.702290076335878;-5.282442748091603;;
0.0631103515625;0.782958984375;0.512939453125;6.916030534351145;-6.847328244274809;-3.0916030534351147;;
0.0537109375;0.7762451171875;0.52099609375;20.396946564885496;3.687022900763359;-8.893129770992367;;
0.036865234375;0.7723388671875;0.485107421875;0.7862595419847328;-5.244274809160306;-4.129770992366412;;
0.0374755859375;0.7698974609375;0.497802734375;-4.2748091603053435;-6.488549618320611;-2.595419847328244;;
0.0238037109375;0.7664794921875;0.4990234375;-14.19083969465649;-6.0534351145038165;4.603053435114504;;
0.056884765625;0.7752685546875;0.49560546875;-18.977099236641223;-7.091603053435114;5.916030534351145;;
0.060791015625;0.7982177734375;0.4976806640625;-22.770992366412212;-9.297709923664122;6.961832061068702;;
0.0628662109375;0.7806396484375;0.5020751953125;-29.69465648854962;-9.870229007633588;5.290076335877862;;
0.0650634765625;0.7655029296875;0.5213623046875;-36.55725190839695;-8.274809160305344;6.541984732824427;;
0.05908203125;0.7447509765625;0.5191650390625;-43.17557251908397;-5.572519083969466;10.259541984732824;;
0.0538330078125;0.735595703125;0.50927734375;-59.17557251908397;-9.580152671755725;15.946564885496183;;
0.063720703125;0.72607421875;0.5244140625;-72.09160305343511;-12.396946564885496;19.358778625954198;;
0.0711669921875;0.6962890625;0.536865234375;-91.82442748091603;-16.81679389312977;24.15267175572519;;
0.0782470703125;0.6624755859375;0.5870361328125;-130.3587786259542;-25.358778625954198;29.870229007633586;;
0.140380859375;0.6680908203125;0.61572265625;-152.9236641221374;-32.404580152671755;26.748091603053435;;
0.1431884765625;0.65185546875;0.69580078125;-153.6259541984733;-28.450381679389313;17.19083969465649;;
0.1368408203125;0.5767822265625;0.6978759765625;-148.18320610687022;-19.03053435114504;16.984732824427482;;
0.1412353515625;0.5560302734375;0.70947265625;-155.0229007633588;-19.229007633587788;12.13740458015267;;
0.1473388671875;0.54541015625;0.71044921875;-161.38167938931298;-25.404580152671755;17.81679389312977;;
0.1717529296875;0.4813232421875;0.747314453125;-174.5114503816794;-21.14503816793893;12.282442748091603;;
0.1793212890625;0.439453125;0.7882080078125;-156.81679389312978;-6.145038167938932;-8.80916030534351;;
0.1336669921875;0.40380859375;0.847900390625;-120.43511450381679;-4.648854961832061;-15.954198473282442;;
0.11474609375;0.348388671875;0.8179931640625;-97.43511450381679;-11.099236641221374;4.755725190839694;;
0.150634765625;0.3394775390625;0.83642578125;-67.74045801526718;-7.0;7.183206106870229;;
0.1729736328125;0.326416015625;0.8524169921875;-73.17557251908397;1.6564885496183206;7.732824427480916;;
0.1640625;0.3194580078125;0.86181640625;-77.93893129770993;22.374045801526716;3.5801526717557253;;
0.1361083984375;0.276123046875;0.8341064453125;-53.916030534351144;10.717557251908397;9.694656488549619;;
0.1585693359375;0.2384033203125;0.8865966796875;-59.404580152671755;24.66412213740458;3.3206106870229006;;
0.16552734375;0.2528076171875;0.80078125;-78.94656488549619;36.55725190839695;5.106870229007634;;
0.12060546875;0.143798828125;0.821044921875;-73.09923664122137;53.091603053435115;2.7251908396946565;;
0.0897216796875;0.1558837890625;0.8994140625;-57.23664122137404;21.870229007633586;12.770992366412214;;
0.0985107421875;0.13134765625;0.895263671875;-34.83206106870229;4.916030534351145;6.67175572519084;;
0.0916748046875;0.123046875;0.8499755859375;-16.16793893129771;-10.381679389312977;8.961832061068701;;
0.096923828125;0.1463623046875;0.8873291015625;-3.1908396946564888;-11.022900763358779;7.083969465648855;;
0.1072998046875;0.156494140625;0.89013671875;13.335877862595419;-12.320610687022901;3.4122137404580153;;
0.1026611328125;0.1519775390625;0.8712158203125;21.977099236641223;-11.763358778625955;1.9618320610687023;;
0.0926513671875;0.1634521484375;0.8726806640625;24.076335877862597;-13.290076335877863;3.7709923664122136;;
0.1011962890625;0.16064453125;0.863037109375;23.236641221374047;-12.145038167938932;5.442748091603053;;
0.11865234375;0.1639404296875;0.86962890625;21.328244274809162;-12.290076335877863;6.938931297709924;;
0.1270751953125;0.1783447265625;0.8809814453125;19.50381679389313;-12.618320610687023;8.312977099236642;;
0.131103515625;0.172119140625;0.88916015625;8.030534351145038;-10.687022900763358;8.49618320610687;;
0.1405029296875;0.201416015625;0.8731689453125;6.137404580152672;-8.427480916030534;5.931297709923665;;
0.1407470703125;0.1900634765625;0.88916015625;7.259541984732825;-6.8396946564885495;4.809160305343512;;
0.1356201171875;0.18603515625;0.8607177734375;8.038167938931299;-5.312977099236641;4.320610687022901;;
0.12939453125;0.186767578125;0.865234375;6.893129770992366;-5.114503816793893;5.916030534351145;;
0.1373291015625;0.19873046875;0.8648681640625;5.870229007633588;-4.641221374045801;5.3816793893129775;;
0.1363525390625;0.212890625;0.867919921875;9.51908396946565;-3.816793893129771;3.2519083969465647;;
0.1427001953125;0.2041015625;0.8516845703125;6.862595419847328;-3.7099236641221376;2.9618320610687023;;
0.1434326171875;0.2012939453125;0.8634033203125;4.709923664122138;-3.183206106870229;3.519083969465649;;
0.14892578125;0.2215576171875;0.870361328125;7.2748091603053435;-2.5343511450381677;2.6259541984732824;;
0.144775390625;0.2135009765625;0.871337890625;9.770992366412214;-1.8396946564885497;2.282442748091603;;
0.1292724609375;0.208740234375;0.8470458984375;8.358778625954198;-2.7404580152671754;2.50381679389313;;
0.136962890625;0.222900390625;0.8560791015625;0.3816793893129771;-2.9160305343511452;2.7022900763358777;;
0.15576171875;0.23388671875;0.8665771484375;7.465648854961832;-1.6488549618320612;0.8854961832061069;;
0.15576171875;0.2294921875;0.84619140625;6.190839694656488;-2.2595419847328246;1.8015267175572518;;
0.1470947265625;0.2176513671875;0.8577880859375;-1.282442748091603;-2.7938931297709924;3.2900763358778624;;
0.1458740234375;0.2257080078125;0.86279296875;-0.9083969465648855;-2.1908396946564888;3.6946564885496183;;
0.135986328125;0.236328125;0.843994140625;4.595419847328245;-1.816793893129771;3.267175572519084;;
0.1353759765625;0.239501953125;0.8558349609375;-0.37404580152671757;-3.099236641221374;4.427480916030534;;
0.1397705078125;0.2197265625;0.849853515625;-11.595419847328245;-4.641221374045801;7.8396946564885495;;
0.1322021484375;0.2215576171875;0.8292236328125;-21.442748091603054;-7.076335877862595;12.381679389312977;;
0.1387939453125;0.231201171875;0.8555908203125;-26.091603053435115;-8.389312977099237;14.404580152671755;;
0.165283203125;0.2313232421875;0.865966796875;-23.740458015267176;-7.488549618320611;11.977099236641221;;
0.1663818359375;0.208251953125;0.8717041015625;-19.84732824427481;-5.961832061068702;9.488549618320612;;
0.157470703125;0.190673828125;0.8553466796875;-17.51145038167939;-5.244274809160306;8.068702290076336;;
0.166748046875;0.19482421875;0.8651123046875;-11.786259541984732;-4.679389312977099;5.0458015267175576;;
0.1629638671875;0.1968994140625;0.8646240234375;-5.923664122137405;-3.0763358778625953;3.015267175572519;;
0.1619873046875;0.1923828125;0.8685302734375;-3.6030534351145036;-2.068702290076336;1.450381679389313;;
0.16259765625;0.1998291015625;0.859130859375;0.6564885496183206;-1.5114503816793894;0.33587786259541985;;
0.1605224609375;0.202392578125;0.8642578125;5.114503816793893;-0.9236641221374046;-0.7251908396946565;;
0.1607666015625;0.199462890625;0.864990234375;8.641221374045802;-0.183206106870229;-1.2290076335877862;;
0.1591796875;0.1876220703125;0.8646240234375;12.893129770992367;0.5572519083969466;-2.2290076335877864;;
0.1717529296875;0.217529296875;0.86376953125;19.519083969465647;2.0381679389312977;-3.8396946564885495;;
0.158203125;0.224609375;0.846923828125;27.916030534351144;2.8244274809160306;-6.435114503816794;;
0.159423828125;0.230712890625;0.8636474609375;31.442748091603054;3.9160305343511452;-8.98473282442748;;
0.16064453125;0.2384033203125;0.85546875;36.37404580152672;6.00763358778626;-11.610687022900763;;
0.156494140625;0.2537841796875;0.83984375;43.55725190839695;10.641221374045802;-13.419847328244275;;
0.1466064453125;0.267333984375;0.839599609375;35.19083969465649;8.221374045801527;-11.992366412213741;;
0.1458740234375;0.2821044921875;0.83837890625;26.022900763358777;6.549618320610687;-9.366412213740459;;
0.1373291015625;0.2960205078125;0.83935546875;30.0;7.427480916030534;-9.580152671755725;;
0.1331787109375;0.306640625;0.8426513671875;35.63358778625954;9.038167938931299;-9.122137404580153;;
0.1319580078125;0.3106689453125;0.835205078125;38.58015267175573;9.83969465648855;-8.893129770992367;;
0.1298828125;0.3172607421875;0.8380126953125;34.045801526717554;8.114503816793894;-8.595419847328245;;
0.1258544921875;0.326904296875;0.8240966796875;30.64885496183206;6.6183206106870225;-7.183206106870229;;
0.12060546875;0.3424072265625;0.8114013671875;26.908396946564885;6.541984732824427;-6.00763358778626;;
0.123291015625;0.3743896484375;0.8145751953125;21.106870229007633;4.442748091603053;-5.7251908396946565;;
0.11572265625;0.365234375;0.8087158203125;14.534351145038167;2.7480916030534353;-5.076335877862595;;
0.1220703125;0.3604736328125;0.8082275390625;6.312977099236641;-0.5267175572519084;-1.3282442748091603;;
0.1185302734375;0.363037109375;0.81494140625;4.022900763358779;-1.2290076335877862;1.1374045801526718;;
0.118896484375;0.3731689453125;0.8133544921875;2.8625954198473282;-1.1297709923664123;1.3435114503816794;;
0.121337890625;0.371826171875;0.8114013671875;1.7251908396946565;-1.4809160305343512;0.7099236641221374;;
0.112060546875;0.374267578125;0.8021240234375;1.6641221374045803;-2.114503816793893;0.9541984732824428;;
0.111328125;0.367919921875;0.8062744140625;2.030534351145038;-2.198473282442748;1.0687022900763359;;
0.12109375;0.369873046875;0.8140869140625;2.877862595419847;-2.045801526717557;1.5114503816793894;;
0.1197509765625;0.3692626953125;0.8204345703125;2.4885496183206106;-1.1374045801526718;1.8931297709923665;;
0.123291015625;0.3807373046875;0.8134765625;4.312977099236641;-0.17557251908396945;1.7251908396946565;;
0.113525390625;0.3826904296875;0.796875;5.458015267175573;0.3435114503816794;1.9083969465648856;;
0.1173095703125;0.3887939453125;0.8017578125;4.641221374045801;1.1221374045801527;1.6488549618320612;;
0.1195068359375;0.3958740234375;0.801025390625;1.6717557251908397;-0.6335877862595419;0.8702290076335878;;
0.12255859375;0.4052734375;0.80224609375;2.3282442748091605;-0.366412213740458;-0.030534351145038167;;
0.117431640625;0.387939453125;0.8077392578125;2.885496183206107;-0.5419847328244275;0.8625954198473282;;
0.1129150390625;0.39404296875;0.8037109375;3.312977099236641;-0.25190839694656486;0.3053435114503817;;
0.11083984375;0.3997802734375;0.8017578125;5.183206106870229;0.20610687022900764;0.6793893129770993;;
0.1129150390625;0.392333984375;0.7991943359375;3.213740458015267;-1.5114503816793894;0.9389312977099237;;
0.1162109375;0.3968505859375;0.8067626953125;1.099236641221374;-1.83206106870229;1.9541984732824427;;
0.1199951171875;0.3985595703125;0.7869873046875;0.9923664122137404;-1.4732824427480915;1.1603053435114503;;
0.11767578125;0.414306640625;0.7969970703125;-6.152671755725191;-3.2061068702290076;2.9923664122137406;;
0.1256103515625;0.4036865234375;0.8050537109375;-13.389312977099237;-3.648854961832061;2.8091603053435112;;
0.115478515625;0.387451171875;0.795654296875;-12.885496183206106;-3.8244274809160306;4.145038167938932;;
0.1219482421875;0.3890380859375;0.8052978515625;-12.053435114503817;-3.5267175572519083;3.16793893129771;;
0.1217041015625;0.38720703125;0.8052978515625;-6.801526717557252;-2.4427480916030535;1.0;;
0.1243896484375;0.381103515625;0.806640625;-6.9465648854961835;-1.6870229007633588;1.0534351145038168;;
0.1214599609375;0.391357421875;0.8070068359375;-4.1679389312977095;-0.7557251908396947;0.31297709923664124;;
0.1224365234375;0.3927001953125;0.8001708984375;-1.1297709923664123;-0.06870229007633588;-0.183206106870229;;
0.1202392578125;0.376708984375;0.8016357421875;-0.366412213740458;0.08396946564885496;0.015267175572519083;;
0.118896484375;0.3905029296875;0.8031005859375;-0.9847328244274809;0.030534351145038167;-0.5954198473282443;;
0.1190185546875;0.392578125;0.79296875;-0.05343511450381679;0.0;-0.6793893129770993;;
0.1116943359375;0.3978271484375;0.79296875;-2.33587786259542;-1.4274809160305344;-0.37404580152671757;;
0.1202392578125;0.3983154296875;0.8004150390625;-3.267175572519084;-1.8396946564885497;-0.21374045801526717;;
0.1201171875;0.3961181640625;0.8111572265625;-1.7709923664122138;-1.9312977099236641;0.061068702290076333;;
0.1185302734375;0.39990234375;0.7939453125;-5.916030534351145;-2.7099236641221376;0.2900763358778626;;
0.1248779296875;0.393310546875;0.8143310546875;-4.374045801526718;-2.099236641221374;-0.6335877862595419;;
0.117919921875;0.38720703125;0.7998046875;-2.572519083969466;-1.6488549618320612;-0.7099236641221374;;
0.117431640625;0.4019775390625;0.803955078125;-3.2595419847328246;-1.9618320610687023;-0.5419847328244275;;
0.123046875;0.3876953125;0.805908203125;-6.908396946564886;-2.7022900763358777;0.8244274809160306;;
0.1212158203125;0.3851318359375;0.7984619140625;-9.335877862595419;-2.9770992366412212;2.312977099236641;;
0.1236572265625;0.392822265625;0.8033447265625;-7.1679389312977095;-2.854961832061069;2.0610687022900764;;
0.126953125;0.3975830078125;0.8157958984375;-5.488549618320611;-1.900763358778626;0.8625954198473282;;
0.127197265625;0.3878173828125;0.81103515625;-2.931297709923664;-0.4961832061068702;-0.37404580152671757;;
0.126220703125;0.384521484375;0.79638671875;-1.9923664122137406;-0.3893129770992366;-0.9083969465648855;;
0.122314453125;0.3900146484375;0.8006591796875;-4.2748091603053435;-0.4732824427480916;0.0916030534351145;;
0.12353515625;0.396728515625;0.798828125;-3.0381679389312977;-0.5114503816793893;-0.3053435114503817;;
0.12158203125;0.3873291015625;0.80029296875;-2.49618320610687;-0.5648854961832062;-0.10687022900763359;;
0.1204833984375;0.3890380859375;0.8031005859375;-4.870229007633588;-1.0076335877862594;0.9694656488549618;;
0.1195068359375;0.3944091796875;0.810546875;-3.4580152671755724;-1.0610687022900764;0.5725190839694656;;
0.1181640625;0.3892822265625;0.8045654296875;-5.2748091603053435;-1.2213740458015268;0.6717557251908397;;
0.119140625;0.3885498046875;0.795654296875;-3.9618320610687023;-1.8015267175572518;0.3816793893129771;;
0.1220703125;0.3917236328125;0.797607421875;-8.221374045801527;-2.053435114503817;0.48854961832061067;;
0.1241455078125;0.383544921875;0.8118896484375;-6.580152671755725;-1.9465648854961832;0.6564885496183206;;
0.1212158203125;0.3812255859375;0.7969970703125;-4.580152671755725;-1.5954198473282444;1.2213740458015268;;
0.1197509765625;0.3868408203125;0.798583984375;-4.465648854961832;-1.8091603053435115;1.1297709923664123;;
0.1129150390625;0.3887939453125;0.8040771484375;-5.290076335877862;-1.3435114503816794;1.2290076335877862;;
0.127197265625;0.385009765625;0.814453125;-3.7786259541984735;-1.297709923664122;0.8396946564885496;;
0.1201171875;0.384521484375;0.809814453125;-2.2290076335877864;-1.0687022900763359;0.6030534351145038;;
0.1241455078125;0.3837890625;0.8109130859375;-2.2900763358778624;-1.0687022900763359;0.9465648854961832;;
0.127197265625;0.390869140625;0.8050537109375;-3.5114503816793894;-1.0305343511450382;1.015267175572519;;
0.1236572265625;0.3907470703125;0.8017578125;-3.267175572519084;-0.9694656488549618;-0.4122137404580153;;
0.1251220703125;0.3834228515625;0.8062744140625;-3.2977099236641223;-1.1984732824427482;-0.40458015267175573;;
0.12353515625;0.3839111328125;0.8052978515625;-3.480916030534351;-1.0916030534351144;0.022900763358778626;;
0.1300048828125;0.387451171875;0.80517578125;-2.8091603053435112;-0.9312977099236641;0.4351145038167939;;
0.12646484375;0.3858642578125;0.801513671875;-2.946564885496183;-1.0229007633587786;0.9236641221374046;;
0.123291015625;0.3914794921875;0.7984619140625;-2.381679389312977;-0.9770992366412213;0.48091603053435117;;
0.1224365234375;0.3868408203125;0.80419921875;-4.267175572519084;-1.4122137404580153;0.6106870229007634;;
0.117919921875;0.3897705078125;0.8028564453125;-2.9389312977099236;-1.1526717557251909;0.4351145038167939;;
0.1185302734375;0.38623046875;0.8072509765625;-2.6106870229007635;-1.3358778625954197;0.2748091603053435;;
0.1282958984375;0.39111328125;0.8087158203125;-3.1755725190839694;-1.0916030534351144;0.13740458015267176;;
0.123779296875;0.3863525390625;0.8033447265625;-2.549618320610687;-0.7633587786259542;-0.061068702290076333;;
0.131591796875;0.3916015625;0.8206787109375;-3.816793893129771;-1.015267175572519;0.3053435114503817;;
0.1243896484375;0.39208984375;0.804443359375;-2.7251908396946565;-0.7709923664122137;-0.022900763358778626;;
0.1240234375;0.3857421875;0.7989501953125;-3.030534351145038;-1.0458015267175573;0.4122137404580153;;
0.109375;0.39013671875;0.80859375;-5.083969465648855;-1.2290076335877862;0.20610687022900764;;
0.122802734375;0.3870849609375;0.8038330078125;-4.488549618320611;-1.3969465648854962;0.9083969465648855;;
0.124755859375;0.3846435546875;0.8052978515625;-4.732824427480916;-1.5114503816793894;0.48091603053435117;;
0.1219482421875;0.3828125;0.796630859375;-4.152671755725191;-1.7557251908396947;0.7786259541984732;;
0.1400146484375;0.388427734375;0.8084716796875;-3.5267175572519083;-1.7557251908396947;0.8625954198473282;;
0.1324462890625;0.3897705078125;0.80810546875;-2.946564885496183;-1.5801526717557253;0.04580152671755725;;
0.1392822265625;0.38232421875;0.8155517578125;-4.3893129770992365;-1.2061068702290076;0.25190839694656486;;
0.1207275390625;0.388916015625;0.8125;-2.9389312977099236;-1.1068702290076335;-0.022900763358778626;;
0.12451171875;0.380859375;0.803955078125;-3.9923664122137406;-1.1450381679389312;0.5343511450381679;;
0.12451171875;0.3853759765625;0.8043212890625;-3.2900763358778624;-1.1984732824427482;0.8854961832061069;;
0.1385498046875;0.385498046875;0.80224609375;-4.450381679389313;-1.3969465648854962;0.9312977099236641;;
0.1248779296875;0.385009765625;0.804931640625;-3.16793893129771;-1.213740458015267;0.7404580152671756;;
0.1260986328125;0.384033203125;0.802734375;-3.8091603053435112;-1.381679389312977;1.0610687022900764;;
0.123779296875;0.3858642578125;0.8043212890625;-5.137404580152672;-1.7328244274809161;0.5877862595419847;;
0.1226806640625;0.3851318359375;0.801513671875;-6.473282442748092;-2.50381679389313;1.1221374045801527;;
0.1241455078125;0.3892822265625;0.804443359375;-9.793893129770993;-3.3435114503816794;2.3587786259541983;;
0.1260986328125;0.3785400390625;0.8077392578125;-13.67175572519084;-4.7251908396946565;2.66412213740458;;
0.1348876953125;0.359619140625;0.7972412109375;-9.969465648854962;-2.9618320610687023;3.6259541984732824;;
0.137939453125;0.3746337890625;0.796875;-7.534351145038168;-1.8778625954198473;1.5954198473282444;;
0.130859375;0.3702392578125;0.8006591796875;-4.984732824427481;-1.450381679389313;1.1603053435114503;;
0.124267578125;0.3782958984375;0.8099365234375;-3.9618320610687023;-1.6717557251908397;0.9541984732824428;;
0.1302490234375;0.374755859375;0.80224609375;-2.9770992366412212;-1.0916030534351144;0.12213740458015267;;
0.1314697265625;0.3773193359375;0.8101806640625;-2.633587786259542;-1.099236641221374;0.19083969465648856;;
0.1337890625;0.38037109375;0.816162109375;-2.5572519083969465;-1.0763358778625953;0.17557251908396945;;
0.129638671875;0.375732421875;0.8074951171875;-0.9007633587786259;-0.8244274809160306;0.061068702290076333;;
0.0469970703125;0.0013427734375;0.8929443359375;-3.595419847328244;-1.2366412213740459;0.3816793893129771;;
0.049560546875;0.0025634765625;0.8880615234375;-3.572519083969466;-1.083969465648855;0.3893129770992366;;
0.044189453125;0.0006103515625;0.88525390625;-3.5801526717557253;-1.1221374045801527;0.4198473282442748;;
0.0494384765625;-0.0009765625;0.8900146484375;-3.5267175572519083;-1.1984732824427482;0.29770992366412213;;
0.0517578125;0.0081787109375;0.8922119140625;-3.5572519083969465;-1.1908396946564885;0.2595419847328244;;
0.048095703125;0.0028076171875;0.8892822265625;-3.595419847328244;-1.083969465648855;0.3053435114503817;;
0.04541015625;0.0123291015625;0.8865966796875;-3.564885496183206;-1.0763358778625953;0.3053435114503817;;
0.054443359375;0.003173828125;0.885498046875;-3.6259541984732824;-1.2366412213740459;0.1984732824427481;;
0.04638671875;0.0029296875;0.893798828125;-3.5114503816793894;-1.1297709923664123;0.33587786259541985;;
0.0479736328125;0.0037841796875;0.891845703125;-3.6412213740458017;-1.0687022900763359;0.24427480916030533;;
0.0445556640625;0.00048828125;0.8870849609375;-3.50381679389313;-1.1450381679389312;0.3435114503816794;;
0.032958984375;0.003173828125;0.8892822265625;-3.6259541984732824;-1.1526717557251909;0.3282442748091603;;
0.052001953125;0.000244140625;0.884521484375;-3.618320610687023;-1.2290076335877862;0.26717557251908397;;
0.0479736328125;0.002685546875;0.8853759765625;-3.6030534351145036;-1.2290076335877862;0.26717557251908397;;
0.0430908203125;-0.002685546875;0.883544921875;-3.633587786259542;-1.183206106870229;0.3893129770992366;;
0.0595703125;0.00390625;0.8896484375;-3.6946564885496183;-1.1374045801526718;0.3282442748091603;;
0.0479736328125;0.004638671875;0.88525390625;-3.6412213740458017;-1.1297709923664123;0.3282442748091603;;
0.05029296875;0.006103515625;0.8892822265625;-3.6717557251908395;-1.1526717557251909;0.22137404580152673;;
0.0506591796875;0.0023193359375;0.8887939453125;-3.5343511450381677;-1.0687022900763359;0.2595419847328244;;
0.052001953125;0.002685546875;0.893310546875;-3.480916030534351;-1.0916030534351144;0.3435114503816794;;
0.05126953125;-0.005615234375;0.8857421875;-3.4885496183206106;-1.083969465648855;0.32061068702290074;;
0.0457763671875;0.0015869140625;0.8837890625;-3.5267175572519083;-1.0610687022900764;0.3282442748091603;;
0.0479736328125;0.002197265625;0.8892822265625;-3.564885496183206;-1.0534351145038168;0.366412213740458;;
0.0511474609375;-0.0028076171875;0.889404296875;-3.595419847328244;-1.3435114503816794;0.1450381679389313;;
0.0491943359375;0.0018310546875;0.89306640625;-3.6412213740458017;-1.1908396946564885;0.1984732824427481;;
0.0618896484375;-0.0042724609375;0.8857421875;-3.618320610687023;-1.1755725190839694;0.22137404580152673;;
0.0494384765625;0.0087890625;0.88623046875;-3.519083969465649;-1.1450381679389312;0.26717557251908397;;
0.046630859375;0.004150390625;0.88037109375;-3.7480916030534353;-1.0916030534351144;0.40458015267175573;;
0.0391845703125;-0.0015869140625;0.888916015625;-3.6030534351145036;-1.2595419847328244;0.3816793893129771;;
0.048095703125;-0.0010986328125;0.8931884765625;-3.5267175572519083;-1.1221374045801527;0.42748091603053434;;
0.048583984375;0.00048828125;0.884521484375;-3.6412213740458017;-1.099236641221374;0.16793893129770993;;
0.049072265625;-0.0015869140625;0.886962890625;-3.648854961832061;-1.1297709923664123;0.25190839694656486;;
0.042236328125;0.00244140625;0.8837890625;-3.687022900763359;-0.9541984732824428;0.24427480916030533;;
0.051025390625;-0.000244140625;0.888916015625;-3.6106870229007635;-1.297709923664122;0.2595419847328244;;
0.048583984375;0.00244140625;0.8887939453125;-3.5267175572519083;-1.0763358778625953;0.2824427480916031;;
0.0499267578125;0.0032958984375;0.89013671875;-3.6106870229007635;-1.2290076335877862;0.3053435114503817;;
0.0521240234375;-0.0009765625;0.8836669921875;-3.5267175572519083;-1.3053435114503817;0.31297709923664124;;
0.045654296875;0.0028076171875;0.8922119140625;-3.633587786259542;-1.2061068702290076;0.3816793893129771;;
0.052001953125;-0.0003662109375;0.8861083984375;-3.6412213740458017;-1.0534351145038168;0.3435114503816794;;
0.0513916015625;-0.001708984375;0.88525390625;-3.564885496183206;-1.0305343511450382;0.33587786259541985;;
0.05126953125;0.0054931640625;0.8853759765625;-3.648854961832061;-1.183206106870229;0.29770992366412213;;
0.05419921875;0.001953125;0.8900146484375;-3.5267175572519083;-1.0916030534351144;0.25190839694656486;;
0.0478515625;0.0059814453125;0.888671875;-3.564885496183206;-1.2671755725190839;0.16793893129770993;;
0.0504150390625;0.0001220703125;0.88427734375;-3.564885496183206;-1.2061068702290076;0.40458015267175573;;
0.0482177734375;0.002197265625;0.885986328125;-3.50381679389313;-1.1374045801526718;0.33587786259541985;;
0.0450439453125;-0.000244140625;0.8780517578125;-3.5572519083969465;-1.1145038167938932;0.26717557251908397;;
0.0518798828125;0.0152587890625;0.8828125;-3.50381679389313;-1.015267175572519;0.3282442748091603;;
0.05029296875;0.00390625;0.8870849609375;-3.5877862595419847;-1.1755725190839694;0.29770992366412213;;
0.049560546875;0.0069580078125;0.8829345703125;-3.5572519083969465;-1.2213740458015268;0.24427480916030533;;
0.046142578125;0.0010986328125;0.887939453125;-3.5801526717557253;-1.0458015267175573;0.3816793893129771;;
0.0452880859375;-0.00146484375;0.888427734375;-3.549618320610687;-1.1984732824427482;0.2824427480916031;;
0.050537109375;0.0084228515625;0.8902587890625;-3.5877862595419847;-1.16793893129771;0.2824427480916031;;
0.052978515625;0.0054931640625;0.888916015625;-3.5267175572519083;-1.2748091603053435;0.3893129770992366;;
0.0445556640625;-0.0035400390625;0.8868408203125;-3.564885496183206;-1.16793893129771;0.3893129770992366;;
0.047607421875;-0.0028076171875;0.8880615234375;-3.618320610687023;-1.1297709923664123;0.33587786259541985;;
0.050537109375;0.0009765625;0.8900146484375;-3.572519083969466;-1.2595419847328244;0.32061068702290074;;
0.048095703125;-0.0008544921875;0.886474609375;-3.519083969465649;-1.1297709923664123;0.20610687022900764;;
0.0455322265625;0.0023193359375;0.8873291015625;-3.633587786259542;-1.0534351145038168;0.29770992366412213;;
0.0513916015625;-0.0001220703125;0.8892822265625;-3.5343511450381677;-1.1297709923664123;0.42748091603053434;;
0.0426025390625;0.0;0.886962890625;-3.519083969465649;-1.1603053435114503;0.2900763358778626;;
0.05029296875;0.000244140625;0.8978271484375;-3.618320610687023;-1.1450381679389312;0.4122137404580153;;
0.0504150390625;-0.0003662109375;0.886474609375;-3.564885496183206;-1.1526717557251909;0.32061068702290074;;
0.0472412109375;0.0045166015625;0.888427734375;-3.6106870229007635;-1.1526717557251909;0.3893129770992366;;
0.0611572265625;-0.0003662109375;0.887939453125;-3.6412213740458017;-1.1526717557251909;0.2900763358778626;;
0.04638671875;0.0155029296875;0.8953857421875;-3.4732824427480917;-1.1374045801526718;0.1984732824427481;;
0.0474853515625;0.0029296875;0.8994140625;-3.6106870229007635;-1.183206106870229;0.2824427480916031;;
0.0487060546875;0.00048828125;0.895263671875;-3.5419847328244276;-1.0381679389312977;0.35877862595419846;;
0.0472412109375;0.004150390625;0.888671875;-3.5419847328244276;-1.1068702290076335;0.3511450381679389;;
0.0555419921875;0.0009765625;0.8873291015625;-3.564885496183206;-1.1755725190839694;0.3053435114503817;;
0.0517578125;-0.001220703125;0.8875732421875;-3.519083969465649;-1.2213740458015268;0.31297709923664124;;
0.05224609375;-0.001953125;0.8829345703125;-3.572519083969466;-1.1221374045801527;0.183206106870229;;
0.04931640625;0.0052490234375;0.875244140625;-3.618320610687023;-1.1526717557251909;0.20610687022900764;;
0.0482177734375;0.0009765625;0.887939453125;-3.5801526717557253;-1.1145038167938932;0.33587786259541985;;
0.050537109375;0.006591796875;0.8839111328125;-3.549618320610687;-1.2595419847328244;0.19083969465648856;;
0.04833984375;0.003173828125;0.88232421875;-3.5877862595419847;-1.1984732824427482;0.40458015267175573;;
0.0477294921875;-0.001953125;0.8841552734375;-3.6106870229007635;-1.1984732824427482;0.366412213740458;;
0.046875;0.0020751953125;0.888427734375;-3.572519083969466;-1.1526717557251909;0.32061068702290074;;
0.048828125;0.0008544921875;0.8812255859375;-3.633587786259542;-1.1221374045801527;0.29770992366412213;;
0.0440673828125;0.000732421875;0.8944091796875;-3.564885496183206;-1.2213740458015268;0.19083969465648856;;
0.0504150390625;0.0008544921875;0.8861083984375;-3.572519083969466;-1.1145038167938932;0.15267175572519084;;
0.0501708984375;-0.014892578125;0.883544921875;-3.49618320610687;-1.1984732824427482;0.33587786259541985;;
0.04638671875;-0.004150390625;0.8896484375;-3.5343511450381677;-1.1068702290076335;0.3816793893129771;;
0.0479736328125;0.00244140625;0.8851318359375;-3.5419847328244276;-1.16793893129771;0.26717557251908397;;
0.05126953125;-0.001953125;0.891845703125;-3.5114503816793894;-1.2366412213740459;0.2748091603053435;;
0.04638671875;0.003662109375;0.8914794921875;-3.6106870229007635;-1.2595419847328244;0.25190839694656486;;
0.0455322265625;0.0032958984375;0.8931884765625;-3.564885496183206;-1.1221374045801527;0.40458015267175573;;
0.048095703125;-0.00048828125;0.8907470703125;-3.6564885496183206;-1.1297709923664123;0.29770992366412213;;
0.051513671875;0.0062255859375;0.9036865234375;-3.572519083969466;-1.213740458015267;0.3816793893129771;;
0.04736328125;0.0015869140625;0.893310546875;-3.572519083969466;-1.0916030534351144;0.3053435114503817;;
0.0479736328125;0.0001220703125;0.888916015625;-3.549618320610687;-1.251908396946565;0.3435114503816794;;
0.0482177734375;0.0137939453125;0.89306640625;-3.572519083969466;-1.2290076335877862;0.22137404580152673;;
0.055419921875;0.0025634765625;0.885498046875;-3.5343511450381677;-1.1374045801526718;0.24427480916030533;;
0.049560546875;-0.015625;0.894287109375;-3.5419847328244276;-1.1908396946564885;0.366412213740458;;
0.046875;0.0006103515625;0.8875732421875;-3.6412213740458017;-1.1526717557251909;0.4351145038167939;;
0.0496826171875;-0.0003662109375;0.8924560546875;-3.6564885496183206;-1.1450381679389312;0.3511450381679389;;
0.0484619140625;-0.0015869140625;0.890869140625;-3.572519083969466;-1.083969465648855;0.3511450381679389;;
0.0472412109375;0.005615234375;0.884033203125;-3.564885496183206;-1.251908396946565;0.32061068702290074;;
0.0458984375;0.0029296875;0.8914794921875;-3.66412213740458;-1.3053435114503817;0.19083969465648856;;
0.048095703125;0.0020751953125;0.8912353515625;-3.595419847328244;-1.1984732824427482;0.3511450381679389;;
0.0484619140625;0.0045166015625;0.89111328125;-3.6030534351145036;-1.2213740458015268;0.24427480916030533;;
0.0462646484375;0.0023193359375;0.89501953125;-3.572519083969466;-1.1908396946564885;0.35877862595419846;;
0.0447998046875;0.002685546875;0.8900146484375;-3.549618320610687;-1.099236641221374;0.3053435114503817;;
0.046875;0.0023193359375;0.8902587890625;-3.564885496183206;-1.2900763358778626;0.3053435114503817;;
0.0455322265625;-0.000732421875;0.88916015625;-3.66412213740458;-1.1145038167938932;0.37404580152671757;;
0.05126953125;0.0013427734375;0.89013671875;-3.5114503816793894;-1.0458015267175573;0.40458015267175573;;
0.0487060546875;0.0025634765625;0.8819580078125;-3.6412213740458017;-1.1450381679389312;0.3435114503816794;;
0.0469970703125;-0.0023193359375;0.8900146484375;-3.717557251908397;-1.1450381679389312;0.31297709923664124;;
0.05126953125;0.0030517578125;0.8861083984375;-3.5801526717557253;-1.0687022900763359;0.42748091603053434;;
0.06201171875;0.0015869140625;0.8868408203125;-3.595419847328244;-1.099236641221374;0.26717557251908397;;
0.0472412109375;0.0028076171875;0.8955078125;-3.6412213740458017;-1.1374045801526718;0.26717557251908397;;
0.0479736328125;0.0052490234375;0.884521484375;-3.633587786259542;-1.0381679389312977;0.4122137404580153;;
0.0504150390625;-0.001708984375;0.8885498046875;-3.549618320610687;-1.1068702290076335;0.21374045801526717;;
0.044677734375;0.0047607421875;0.88818359375;-3.633587786259542;-1.1984732824427482;0.3053435114503817;;
0.0467529296875;-0.0018310546875;0.88525390625;-3.6106870229007635;-1.0763358778625953;0.3816793893129771;;
0.0478515625;0.0020751953125;0.8868408203125;-3.572519083969466;-1.213740458015267;0.1984732824427481;;
0.050048828125;0.0001220703125;0.888671875;-3.4885496183206106;-1.1221374045801527;0.19083969465648856;;
0.0330810546875;-0.0010986328125;0.8809814453125;-3.648854961832061;-1.1908396946564885;0.35877862595419846;;
0.0494384765625;0.0010986328125;0.8837890625;-3.595419847328244;-1.1603053435114503;0.2366412213740458;;
0.05029296875;-0.001708984375;0.89306640625;-3.564885496183206;-1.1450381679389312;0.40458015267175573;;
0.047607421875;0.001708984375;0.885009765625;-3.450381679389313;-1.1221374045801527;0.2900763358778626;;
0.0445556640625;-0.0032958984375;0.8861083984375;-3.633587786259542;-1.0534351145038168;0.16030534351145037;;
0.0474853515625;0.00244140625;0.89404296875;-3.618320610687023;-1.1908396946564885;0.32061068702290074;;
0.048583984375;-0.0020751953125;0.88818359375;-3.595419847328244;-1.0916030534351144;0.32061068702290074;;
0.0555419921875;0.0003662109375;0.8902587890625;-3.763358778625954;-1.2366412213740459;0.1297709923664122;;
0.048828125;0.004150390625;0.8907470703125;-3.618320610687023;-1.1908396946564885;0.2366412213740458;;
0.0491943359375;0.01513671875;0.8905029296875;-3.595419847328244;-1.183206106870229;0.2824427480916031;;
0.0482177734375;0.0037841796875;0.89794921875;-3.5114503816793894;-1.1221374045801527;0.366412213740458;;
0.054443359375;0.00048828125;0.8912353515625;-3.4885496183206106;-1.1755725190839694;0.3435114503816794;;
0.0482177734375;0.0013427734375;0.8924560546875;-3.549618320610687;-1.0610687022900764;0.24427480916030533;;
0.050048828125;0.001708984375;0.8914794921875;-3.595419847328244;-1.0381679389312977;0.16030534351145037;;
0.0526123046875;0.00244140625;0.8939208984375;-3.633587786259542;-1.1984732824427482;0.35877862595419846;;
0.0540771484375;0.0010986328125;0.8927001953125;-3.595419847328244;-1.1221374045801527;0.2900763358778626;;
0.051513671875;0.00439453125;0.8880615234375;-3.4580152671755724;-1.0229007633587786;0.2900763358778626;;
0.047119140625;0.005615234375;0.8922119140625;-3.5801526717557253;-1.0305343511450382;0.3053435114503817;;
0.047607421875;0.001953125;0.88720703125;-3.618320610687023;-1.1145038167938932;0.22900763358778625;;
0.045654296875;0.001953125;0.887939453125;-3.5572519083969465;-1.0381679389312977;0.31297709923664124;;
0.052490234375;0.0037841796875;0.8896484375;-3.633587786259542;-1.2290076335877862;0.2595419847328244;;
0.046875;0.00439453125;0.8856201171875;-3.435114503816794;-1.0916030534351144;0.2824427480916031;;
0.0528564453125;0.004638671875;0.8897705078125;-3.549618320610687;-1.0687022900763359;0.25190839694656486;;
0.050537109375;0.0001220703125;0.8922119140625;-3.5267175572519083;-1.1068702290076335;0.21374045801526717;;
0.0517578125;-0.0020751953125;0.892578125;-3.5801526717557253;-1.083969465648855;0.22137404580152673;;
0.0496826171875;0.0023193359375;0.8885498046875;-3.5801526717557253;-1.1908396946564885;0.31297709923664124;;
0.047119140625;0.00341796875;0.88330078125;-3.648854961832061;-1.2061068702290076;0.32061068702290074;;
0.0537109375;0.00341796875;0.8939208984375;-3.618320610687023;-1.183206106870229;0.29770992366412213;;
0.0477294921875;-0.000732421875;0.8853759765625;-3.5801526717557253;-1.1908396946564885;0.25190839694656486;;
0.0489501953125;-0.00048828125;0.89208984375;-3.5572519083969465;-1.1603053435114503;0.32061068702290074;;
0.052978515625;-0.0010986328125;0.88671875;-3.5877862595419847;-1.1221374045801527;0.3816793893129771;;
0.048583984375;0.0032958984375;0.8839111328125;-3.5801526717557253;-1.099236641221374;0.33587786259541985;;
0.0469970703125;0.0003662109375;0.887939453125;-3.6717557251908395;-1.2442748091603053;0.2824427480916031;;
0.047607421875;0.0064697265625;0.887939453125;-3.618320610687023;-1.2290076335877862;0.2366412213740458;;
0.0447998046875;0.0050048828125;0.8758544921875;-3.564885496183206;-1.0229007633587786;0.46564885496183206;;
0.0489501953125;0.00537109375;0.88916015625;-3.5877862595419847;-1.1526717557251909;0.22137404580152673;;
0.0618896484375;0.002197265625;0.89013671875;-3.618320610687023;-1.099236641221374;0.3893129770992366;;
0.053466796875;0.00732421875;0.8759765625;-3.519083969465649;-1.1374045801526718;0.26717557251908397;;
0.049072265625;-0.014892578125;0.8875732421875;-3.572519083969466;-1.1374045801526718;0.26717557251908397;;
0.0474853515625;-0.0013427734375;0.8902587890625;-3.6564885496183206;-1.1603053435114503;0.31297709923664124;;
0.0460205078125;0.0;0.891845703125;-3.6564885496183206;-1.16793893129771;0.2824427480916031;;
0.05078125;0.0028076171875;0.8988037109375;-3.549618320610687;-1.0534351145038168;0.3969465648854962;;
0.0452880859375;-0.0125732421875;0.887939453125;-3.6412213740458017;-1.1526717557251909;0.22137404580152673;;
0.0478515625;0.0030517578125;0.8868408203125;-3.5343511450381677;-1.1984732824427482;0.19083969465648856;;
0.0498046875;-0.01220703125;0.8912353515625;-3.6793893129770994;-1.1374045801526718;0.25190839694656486;;
0.0479736328125;0.0025634765625;0.8887939453125;-3.6259541984732824;-1.015267175572519;0.29770992366412213;;
0.0465087890625;-0.00146484375;0.8919677734375;-3.618320610687023;-1.1984732824427482;0.3893129770992366;;
0.0450439453125;0.004638671875;0.891845703125;-3.572519083969466;-1.2290076335877862;0.3282442748091603;;
0.04833984375;0.0;0.8892822265625;-3.572519083969466;-1.1145038167938932;0.29770992366412213;;
0.0474853515625;0.0003662109375;0.9031982421875;-3.5419847328244276;-1.2290076335877862;0.3282442748091603;;
0.0504150390625;0.0006103515625;0.89404296875;-3.5801526717557253;-1.1297709923664123;0.31297709923664124;;
0.0489501953125;0.0126953125;0.890380859375;-3.648854961832061;-1.1145038167938932;0.37404580152671757;;
0.04931640625;0.0028076171875;0.889404296875;-3.6564885496183206;-1.213740458015267;0.2366412213740458;;
0.0341796875;-0.00048828125;0.891845703125;-3.4732824427480917;-1.1145038167938932;0.3969465648854962;;
0.0611572265625;0.0052490234375;0.885986328125;-3.519083969465649;-1.2061068702290076;0.2595419847328244;;
0.045166015625;0.001708984375;0.8892822265625;-3.572519083969466;-1.1145038167938932;0.33587786259541985;;
0.0482177734375;0.0032958984375;0.89404296875;-3.66412213740458;-1.2213740458015268;0.366412213740458;;
0.04833984375;-0.001220703125;0.8870849609375;-3.595419847328244;-1.1374045801526718;0.1984732824427481;;
0.049560546875;0.0023193359375;0.8980712890625;-3.564885496183206;-1.1526717557251909;0.1984732824427481;;
0.0516357421875;0.0020751953125;0.8868408203125;-3.618320610687023;-1.0534351145038168;0.31297709923664124;;
0.0440673828125;0.003662109375;0.88330078125;-3.5877862595419847;-1.1755725190839694;0.4198473282442748;;
0.0465087890625;0.00390625;0.8929443359375;-3.564885496183206;-1.1603053435114503;0.35877862595419846;;
0.0458984375;-0.0008544921875;0.9051513671875;-3.6793893129770994;-1.2290076335877862;0.2748091603053435;;
0.0484619140625;-0.0008544921875;0.8861083984375;-3.6106870229007635;-1.0763358778625953;0.3816793893129771;;
0.046630859375;0.0025634765625;0.8922119140625;-3.5572519083969465;-1.015267175572519;0.2366412213740458;;
0.0419921875;0.0025634765625;0.888671875;-3.572519083969466;-1.183206106870229;0.1984732824427481;;
0.0513916015625;0.003662109375;0.8900146484375;-3.633587786259542;-1.183206106870229;0.3435114503816794;;
0.051513671875;0.0047607421875;0.889892578125;-3.633587786259542;-1.0381679389312977;0.32061068702290074;;
0.047119140625;0.00537109375;0.8880615234375;-3.6106870229007635;-1.1984732824427482;0.366412213740458;;
0.046630859375;0.0074462890625;0.887939453125;-3.50381679389313;-1.2061068702290076;0.366412213740458;;
0.0535888671875;0.0062255859375;0.8912353515625;-3.6106870229007635;-1.0534351145038168;0.183206106870229;;
0.0501708984375;0.0028076171875;0.886962890625;-3.648854961832061;-1.1374045801526718;0.22137404580152673;;
0.0501708984375;0.001220703125;0.8873291015625;-3.717557251908397;-1.1755725190839694;0.22137404580152673;;
0.046630859375;-0.001708984375;0.8857421875;-3.572519083969466;-1.2442748091603053;0.3435114503816794;;
0.04931640625;0.0035400390625;0.892333984375;-3.6106870229007635;-1.0458015267175573;0.2595419847328244;;
0.0330810546875;0.002197265625;0.8946533203125;-3.549618320610687;-1.083969465648855;0.31297709923664124;;
0.0467529296875;0.0028076171875;0.8875732421875;-3.6259541984732824;-1.099236641221374;0.2595419847328244;;
0.0509033203125;0.00048828125;0.8939208984375;-3.6412213740458017;-1.1374045801526718;0.33587786259541985;;
0.05029296875;0.003173828125;0.8887939453125;-3.595419847328244;-1.1297709923664123;0.32061068702290074;;
0.0504150390625;-0.0009765625;0.8861083984375;-3.5343511450381677;-1.1603053435114503;0.33587786259541985;;
0.0506591796875;-0.00244140625;0.88916015625;-3.5877862595419847;-1.0458015267175573;0.22137404580152673;;
0.0516357421875;0.0050048828125;0.888671875;-3.6412213740458017;-1.183206106870229;0.25190839694656486;;
0.051025390625;0.0030517578125;0.8885498046875;-3.5267175572519083;-1.1450381679389312;0.37404580152671757;;
0.0479736328125;0.001220703125;0.8875732421875;-3.633587786259542;-1.1297709923664123;0.29770992366412213;;
0.0523681640625;-0.0045166015625;0.8916015625;-3.6030534351145036;-1.1984732824427482;0.24427480916030533;;
0.0469970703125;0.0040283203125;0.892333984375;-3.572519083969466;-1.183206106870229;0.2595419847328244;;
0.0482177734375;0.002197265625;0.885009765625;-3.4580152671755724;-1.1526717557251909;0.31297709923664124;;
0.039794921875;0.0009765625;0.8885498046875;-3.5877862595419847;-1.083969465648855;0.4198473282442748;;
0.04931640625;0.0008544921875;0.894287109375;-3.49618320610687;-1.1068702290076335;0.3969465648854962;;
0.0604248046875;0.000244140625;0.8851318359375;-3.5419847328244276;-1.1908396946564885;0.29770992366412213;;
0.0496826171875;0.0029296875;0.886962890625;-3.5801526717557253;-1.1603053435114503;0.3053435114503817;;
0.049072265625;0.0010986328125;0.8848876953125;-3.7022900763358777;-1.2366412213740459;0.3053435114503817;;
0.062255859375;0.0032958984375;0.8941650390625;-3.5801526717557253;-1.1068702290076335;0.3893129770992366;;
0.047119140625;0.00390625;0.8919677734375;-3.5801526717557253;-1.083969465648855;0.22900763358778625;;
0.0484619140625;0.003662109375;0.89404296875;-3.6030534351145036;-1.1603053435114503;0.3816793893129771;;
0.047119140625;-0.00048828125;0.8931884765625;-3.6259541984732824;-1.1068702290076335;0.25190839694656486;;
0.0504150390625;-0.001953125;0.8909912109375;-3.6106870229007635;-1.1221374045801527;0.3282442748091603;;
0.04931640625;0.015380859375;0.888916015625;-3.49618320610687;-1.0;0.22137404580152673;;
0.0452880859375;0.0013427734375;0.89013671875;-3.4885496183206106;-1.099236641221374;0.3969465648854962;;
0.046875;0.0048828125;0.891357421875;-3.6259541984732824;-1.1908396946564885;0.2900763358778626;;
0.048095703125;0.0037841796875;0.89013671875;-3.66412213740458;-1.0610687022900764;0.19083969465648856;;
0.0501708984375;0.000732421875;0.888916015625;-3.5801526717557253;-1.16793893129771;0.16030534351145037;;
0.0498046875;0.00537109375;0.90576171875;-3.4885496183206106;-1.2442748091603053;0.4122137404580153;;
0.0517578125;0.00537109375;0.890625;-3.6717557251908395;-1.1755725190839694;0.32061068702290074;;
0.0472412109375;0.0018310546875;0.8912353515625;-3.5419847328244276;-1.0687022900763359;0.40458015267175573;;
0.0447998046875;0.004638671875;0.89013671875;-3.572519083969466;-1.2442748091603053;0.22900763358778625;;
0.04931640625;-0.0003662109375;0.88818359375;-3.66412213740458;-1.1450381679389312;0.2900763358778626;;
0.0533447265625;0.003662109375;0.8905029296875;-3.549618320610687;-1.0534351145038168;0.4351145038167939;;
0.05322265625;0.0015869140625;0.889892578125;-3.6106870229007635;-1.099236641221374;0.3511450381679389;;
0.0489501953125;0.00341796875;0.8892822265625;-3.5419847328244276;-1.0610687022900764;0.31297709923664124;;
0.04541015625;0.00146484375;0.891845703125;-3.4580152671755724;-1.183206106870229;0.24427480916030533;;
0.0518798828125;-0.0008544921875;0.8936767578125;-3.6412213740458017;-1.183206106870229;0.3893129770992366;;
0.0511474609375;-0.0020751953125;0.89013671875;-3.4656488549618323;-1.2671755725190839;0.2748091603053435;;
0.050048828125;0.001708984375;0.8944091796875;-3.5572519083969465;-1.1526717557251909;0.22137404580152673;;
0.047607421875;-0.0029296875;0.888671875;-3.5801526717557253;-1.251908396946565;0.366412213740458;;
0.0382080078125;-0.0020751953125;0.893310546875;-3.5343511450381677;-1.1297709923664123;0.33587786259541985;;
0.04296875;0.000732421875;0.896240234375;-3.564885496183206;-1.3129770992366412;0.20610687022900764;;
0.048583984375;0.0072021484375;0.892333984375;-3.5572519083969465;-1.2442748091603053;0.3053435114503817;;
0.0516357421875;-0.0015869140625;0.8863525390625;-3.519083969465649;-1.2290076335877862;0.17557251908396945;;
0.0509033203125;0.004150390625;0.89501953125;-3.5114503816793894;-1.297709923664122;0.21374045801526717;;
0.050537109375;0.0018310546875;0.885986328125;-3.5419847328244276;-1.183206106870229;0.24427480916030533;;
0.051025390625;0.0;0.8939208984375;-3.618320610687023;-1.1145038167938932;0.2824427480916031;;
0.04736328125;-0.000244140625;0.891357421875;-3.5114503816793894;-1.1526717557251909;0.3893129770992366;;
0.0482177734375;0.002197265625;0.884521484375;-3.6030534351145036;-1.183206106870229;0.16793893129770993;;
0.0460205078125;0.004638671875;0.890380859375;-3.50381679389313;-1.1297709923664123;0.31297709923664124;;
0.0469970703125;-0.0025634765625;0.88720703125;-3.648854961832061;-1.1374045801526718;0.24427480916030533;;
0.0494384765625;0.002685546875;0.90576171875;-3.6412213740458017;-1.1297709923664123;0.2824427480916031;;
0.0528564453125;0.004638671875;0.9061279296875;-3.6030534351145036;-1.1603053435114503;0.3282442748091603;;
0.0482177734375;-0.0001220703125;0.9033203125;-3.618320610687023;-1.183206106870229;0.3816793893129771;;
0.049072265625;0.0003662109375;0.8900146484375;-3.572519083969466;-1.2290076335877862;0.2366412213740458;;
0.0494384765625;-0.0010986328125;0.892333984375;-3.5801526717557253;-1.1068702290076335;0.33587786259541985;;
0.0517578125;0.0003662109375;0.8936767578125;-3.5801526717557253;-1.0305343511450382;0.32061068702290074;;
0.0408935546875;0.0059814453125;0.88916015625;-3.5801526717557253;-1.1297709923664123;0.24427480916030533;;
0.0606689453125;0.0001220703125;0.8870849609375;-3.6259541984732824;-1.0687022900763359;0.35877862595419846;;
0.0517578125;0.001220703125;0.889404296875;-3.5877862595419847;-1.1603053435114503;0.32061068702290074;;
0.0455322265625;0.00244140625;0.8912353515625;-3.6946564885496183;-1.16793893129771;0.4351145038167939;;
0.0533447265625;0.0126953125;0.883056640625;-3.4656488549618323;-0.6946564885496184;34.31297709923664;;
0.044189453125;-0.0142822265625;0.9052734375;-2.9618320610687023;-1.213740458015267;25.114503816793892;;
0.0325927734375;0.0042724609375;0.8896484375;-3.427480916030534;-1.83206106870229;30.358778625954198;;
0.1507568359375;-0.0299072265625;0.90283203125;-3.068702290076336;1.3358778625954197;32.42748091603053;;
0.04833984375;-0.07763671875;1.1171875;-35.85496183206107;58.70992366412214;41.778625954198475;;
-0.064208984375;-0.3758544921875;0.85205078125;-90.41984732824427;98.3969465648855;-22.374045801526716;;
0.0711669921875;-0.0704345703125;0.72265625;-115.98473282442748;-0.732824427480916;61.778625954198475;;
0.0411376953125;-0.0106201171875;0.7542724609375;-37.038167938931295;-70.65648854961832;69.25190839694656;;
0.1748046875;-0.2177734375;1.010986328125;-9.725190839694656;-14.320610687022901;86.70992366412214;;
0.0308837890625;-0.120849609375;0.9443359375;-26.17557251908397;-5.8396946564885495;54.79389312977099;;
0.067138671875;-0.0750732421875;0.7518310546875;-32.06870229007634;-7.312977099236641;21.732824427480917;;
0.2576904296875;-0.0557861328125;0.9822998046875;-38.770992366412216;25.0;-39.16030534351145;;
-0.2886962890625;-0.3131103515625;0.8880615234375;-16.137404580152673;11.213740458015268;-65.59541984732824;;
0.0194091796875;-0.0775146484375;0.8514404296875;-36.2442748091603;4.473282442748092;11.633587786259541;;
-0.0350341796875;-0.1298828125;0.827392578125;-10.251908396946565;17.96946564885496;14.045801526717558;;
-0.0123291015625;-0.1707763671875;0.8758544921875;5.603053435114504;85.49618320610686;25.9618320610687;;
-0.0111083984375;-0.1356201171875;0.843505859375;8.358778625954198;52.900763358778626;-3.2213740458015265;;
-0.005126953125;-0.1219482421875;0.8717041015625;-3.2748091603053435;9.396946564885496;3.5267175572519083;;
-0.0228271484375;-0.0848388671875;0.8868408203125;-4.427480916030534;-38.32824427480916;11.748091603053435;;
-0.0147705078125;-0.16552734375;0.9183349609375;-16.72519083969466;-24.557251908396946;8.557251908396946;;
0.0107421875;-0.1280517578125;0.913330078125;-36.3587786259542;3.1068702290076335;6.679389312977099;;
0.0284423828125;-0.1572265625;0.9010009765625;-39.14503816793893;43.85496183206107;22.19083969465649;;
-0.011962890625;-0.1148681640625;0.868408203125;-22.328244274809162;-7.0;17.709923664122137;;
-0.01904296875;-0.166259765625;0.8140869140625;2.16793893129771;19.702290076335878;3.030534351145038;;
-0.021484375;-0.1417236328125;0.904541015625;11.83206106870229;-23.68702290076336;-7.534351145038168;;
-0.0213623046875;-0.0242919921875;0.8515625;3.4885496183206106;-88.77099236641222;1.534351145038168;;
0.049560546875;-0.0728759765625;0.842041015625;27.633587786259543;-55.267175572519086;-15.595419847328245;;
0.035400390625;0.08544921875;0.867919921875;83.08396946564885;11.129770992366412;-48.50381679389313;;
0.0291748046875;-0.1546630859375;0.892333984375;18.30534351145038;0.42748091603053434;-35.32824427480916;;
0.0006103515625;-0.0982666015625;0.9017333984375;-34.74045801526717;-1.4961832061068703;-12.778625954198473;;
0.1256103515625;0.091064453125;0.564453125;72.2824427480916;-3.450381679389313;-14.648854961832061;;
0.01708984375;-0.110107421875;0.935546875;89.19083969465649;-2.0839694656488548;-9.625954198473282;;
0.04443359375;-0.0634765625;0.8936767578125;56.13740458015267;-6.519083969465649;3.7786259541984735;;
-0.0225830078125;-0.06201171875;0.8958740234375;56.267175572519086;-6.938931297709924;1.3587786259541985;;
0.056884765625;-0.0828857421875;0.8822021484375;48.908396946564885;-5.793893129770993;12.13740458015267;;
0.05712890625;0.0328369140625;0.8653564453125;46.29007633587786;-8.259541984732824;11.16793893129771;;
0.048095703125;-0.0091552734375;0.9033203125;-4.801526717557252;-1.1374045801526718;-1.0458015267175573;;
0.0355224609375;-0.0091552734375;0.8863525390625;-3.1603053435114505;-1.6793893129770991;1.381679389312977;;
0.043212890625;-0.0032958984375;0.8814697265625;1.4351145038167938;-5.122137404580153;-0.5267175572519084;;
0.0491943359375;0.002685546875;0.8902587890625;-3.2519083969465647;-1.6259541984732824;-2.3893129770992365;;
0.0504150390625;-0.00048828125;0.8917236328125;-2.786259541984733;-2.2595419847328246;-0.32061068702290074;;
0.044921875;0.0028076171875;0.8887939453125;-3.6793893129770994;-1.2290076335877862;0.25190839694656486;;
0.0419921875;-0.0125732421875;0.88818359375;-3.9389312977099236;-0.6259541984732825;-1.7251908396946565;;
0.039306640625;0.0001220703125;0.888916015625;-4.145038167938932;-0.5038167938931297;-2.717557251908397;;
0.052001953125;0.0130615234375;0.8857421875;-3.885496183206107;-0.816793893129771;-1.8244274809160306;;
0.0634765625;0.008544921875;0.8939208984375;-3.7709923664122136;-0.9847328244274809;-2.3969465648854964;;
0.0244140625;-0.0042724609375;0.9114990234375;-16.16030534351145;5.595419847328245;-6.099236641221374;;
0.03369140625;-0.001953125;0.9361572265625;-10.488549618320612;-0.6106870229007634;-1.717557251908397;;
0.0736083984375;0.01416015625;0.8736572265625;-28.49618320610687;-1.702290076335878;-2.732824427480916;;
0.0528564453125;-0.0162353515625;0.92431640625;-20.267175572519083;-4.603053435114504;0.44274809160305345;;
0.0548095703125;-0.00146484375;0.86962890625;-25.778625954198475;-2.4427480916030535;1.6870229007633588;;
0.0667724609375;-0.01611328125;0.8607177734375;-5.145038167938932;-5.061068702290076;1.7709923664122138;;
0.03271484375;-0.0472412109375;0.890625;-13.312977099236642;-7.183206106870229;-0.549618320610687;;
0.0538330078125;-0.003662109375;0.89892578125;-21.80916030534351;-5.557251908396947;-4.343511450381679;;
0.0631103515625;-0.0301513671875;0.9007568359375;-44.23664122137404;-6.595419847328245;-34.02290076335878;;
